File: TAP_Report/Data/Res_PB/100 uM RS 10mM PB_03_CV_C01_2.mpt
EC-Lab ASCII FILE
Nb header lines : 53

Cyclic Voltammetry

Run on channel : 1 (SN 0696)
User :
Electrode connection : standard
Ewe ctrl range : min = -10.00 V, max = 10.00 V
Ewe,I filtering : 50 kHz
Channel : Grounded
Acquisition started on : 05/17/2017 12:53:20
Saved on :
	File : 100 uM RS 10mM PB_03_CV_C01.mpr
	Directory : \\userfs\st659\w2k\EC-Lab\Data\ITO Characterisation 17-5-17\
	Host : 144.32.136.43
Device : SP-300 (SN 0182)
Address : USB
EC-Lab for windows v10.44 (software)
Internet server v10.44 (firmware)
Command interpretor v10.44 (firmware)
Electrode material :
Initial state :
Electrolyte :
Comments :
Cable : standard
Electrode surface area : 0.001 cm²
Characteristic mass : 0.001 g
Equivalent Weight : 0.000 g/eq.
Density : 0.000 g/cm3
Ei (V)              0.000
vs.                 Eoc
dE/dt               100.000
dE/dt unit          mV/s
E1 (V)              0.100
vs.                 Ref
Step percent        50
N                   10
E range min (V)     -10.000
E range max (V)     10.000
I Range             Auto
I Range min         Unset
I Range max         Unset
I Range init        Unset
Bandwidth           8
E2 (V)              -0.600
vs.                 Ref
nc cycles           2
Reverse Scan        1
Ef (V)              0.000
vs.                 Eoc

mode	ox/red	error	control changes	counter inc.	time/s	control/V	Ewe/V	<I>/mA	cycle number	(Q-Qo)/C	P/W
2	1	0	0	1	352.537	-0.60016	-0.60039	-0.0103013	2	-3.07096e-05	6.18481e-06
2	1	0	1	1	352.555	-0.598328	-0.598555	-0.00996001	2	-3.08933e-05	5.96161e-06
2	1	0	0	1	352.588	-0.594989	-0.595234	-0.00963282	2	-3.12196e-05	5.73378e-06
2	1	0	0	1	352.622	-0.59167	-0.591915	-0.00938423	2	-3.15346e-05	5.55467e-06
2	1	0	1	1	352.655	-0.588329	-0.588585	-0.00914854	2	-3.18434e-05	5.3847e-06
2	1	0	1	1	352.688	-0.585006	-0.585233	-0.00893062	2	-3.21428e-05	5.22649e-06
2	1	0	0	1	352.722	-0.581667	-0.581889	-0.00872004	2	-3.24368e-05	5.07409e-06
2	1	0	1	1	352.755	-0.578329	-0.578573	-0.00852346	2	-3.27241e-05	4.93144e-06
2	1	0	1	1	352.788	-0.57501	-0.575248	-0.00833206	2	-3.30032e-05	4.793e-06
2	1	0	0	1	352.822	-0.571671	-0.571929	-0.00814977	2	-3.32778e-05	4.66108e-06
2	1	0	0	1	352.855	-0.568346	-0.568604	-0.00797473	2	-3.35448e-05	4.53446e-06
2	1	0	1	1	352.888	-0.565007	-0.565259	-0.00780521	2	-3.38076e-05	4.41196e-06
2	1	0	0	1	352.922	-0.561668	-0.561898	-0.00763889	2	-3.40649e-05	4.29228e-06
2	1	0	0	1	352.955	-0.55835	-0.558588	-0.00748299	2	-3.43153e-05	4.17991e-06
2	1	0	1	1	352.988	-0.555011	-0.555272	-0.00733016	2	-3.4562e-05	4.07024e-06
2	1	0	0	1	353.021	-0.551677	-0.551922	-0.00717747	2	-3.48029e-05	3.96141e-06
2	1	0	0	1	353.055	-0.548347	-0.548561	-0.00703358	2	-3.50389e-05	3.85835e-06
2	1	0	1	1	353.088	-0.545008	-0.545246	-0.0068946	2	-3.52709e-05	3.75925e-06
2	1	0	1	1	353.121	-0.541689	-0.541917	-0.00675522	2	-3.54968e-05	3.66077e-06
2	1	0	0	1	353.155	-0.538351	-0.538582	-0.00662329	2	-3.57196e-05	3.56718e-06
2	1	0	1	1	353.188	-0.535016	-0.535241	-0.006492	2	-3.59374e-05	3.47478e-06
2	1	0	1	1	353.221	-0.531686	-0.531917	-0.00636803	2	-3.61509e-05	3.38726e-06
2	1	0	0	1	353.255	-0.528348	-0.528587	-0.00624352	2	-3.63609e-05	3.30024e-06
2	1	0	0	1	353.288	-0.525029	-0.525277	-0.00612557	2	-3.65656e-05	3.21762e-06
2	1	0	1	1	353.321	-0.52169	-0.521927	-0.0060069	2	-3.67676e-05	3.13516e-06
2	1	0	0	1	353.355	-0.518358	-0.51857	-0.00589176	2	-3.69651e-05	3.05529e-06
2	1	0	0	1	353.388	-0.515026	-0.515267	-0.00578034	2	-3.71588e-05	2.97842e-06
2	1	0	1	1	353.421	-0.511687	-0.511939	-0.00567128	2	-3.73494e-05	2.90335e-06
2	1	0	1	1	353.455	-0.508369	-0.508622	-0.00556494	2	-3.75354e-05	2.83045e-06
2	1	0	0	1	353.488	-0.50503	-0.505264	-0.00546098	2	-3.77189e-05	2.75923e-06
2	1	0	1	1	353.521	-0.5017	-0.501945	-0.00535808	2	-3.78984e-05	2.68946e-06
2	1	0	1	1	353.555	-0.498366	-0.498598	-0.0052582	2	-3.80746e-05	2.62172e-06
2	1	0	0	1	353.588	-0.495027	-0.495234	-0.00516196	2	-3.8248e-05	2.55638e-06
2	1	0	0	1	353.621	-0.491708	-0.491926	-0.00506595	2	-3.84172e-05	2.49207e-06
2	1	0	1	1	353.655	-0.48837	-0.48862	-0.00497419	2	-3.85843e-05	2.43049e-06
2	1	0	0	1	353.688	-0.485031	-0.485254	-0.00488185	2	-3.87483e-05	2.36893e-06
2	1	0	0	1	353.721	-0.481705	-0.481941	-0.00479233	2	-3.89083e-05	2.30962e-06
2	1	0	1	1	353.755	-0.478367	-0.478604	-0.00470373	2	-3.90663e-05	2.25122e-06
2	1	0	1	1	353.788	-0.475048	-0.475275	-0.0046185	2	-3.92204e-05	2.19506e-06
2	1	0	0	1	353.821	-0.471709	-0.471959	-0.00453517	2	-3.93727e-05	2.14041e-06
2	1	0	1	1	353.855	-0.468371	-0.468604	-0.00445227	2	-3.95222e-05	2.08635e-06
2	1	0	1	1	353.888	-0.465047	-0.465261	-0.00436995	2	-3.96681e-05	2.03317e-06
2	1	0	0	1	353.921	-0.461706	-0.461926	-0.00429222	2	-3.98122e-05	1.98269e-06
2	1	0	0	1	353.954	-0.458388	-0.458605	-0.00421382	2	-3.99528e-05	1.93248e-06
2	1	0	1	1	353.988	-0.455049	-0.455253	-0.00413777	2	-4.00917e-05	1.88373e-06
2	1	0	0	1	354.021	-0.45171	-0.451946	-0.00406441	2	-4.02281e-05	1.83689e-06
2	1	0	0	1	354.054	-0.448389	-0.448598	-0.0039899	2	-4.03612e-05	1.78986e-06
2	1	0	1	1	354.088	-0.445046	-0.445251	-0.00392002	2	-4.04927e-05	1.74539e-06
2	1	0	1	1	354.121	-0.441727	-0.44195	-0.00385001	2	-4.06211e-05	1.70151e-06
2	1	0	0	1	354.154	-0.438389	-0.438608	-0.00377971	2	-4.0748e-05	1.65781e-06
2	1	0	1	1	354.188	-0.43505	-0.435264	-0.00371185	2	-4.08725e-05	1.61564e-06
2	1	0	1	1	354.221	-0.431729	-0.431948	-0.00364565	2	-4.09941e-05	1.57473e-06
2	1	0	0	1	354.254	-0.428386	-0.428629	-0.00357985	2	-4.11142e-05	1.53443e-06
2	1	0	0	1	354.288	-0.425067	-0.425305	-0.00351755	2	-4.12314e-05	1.49603e-06
2	1	0	1	1	354.321	-0.421728	-0.421969	-0.00345358	2	-4.13473e-05	1.4573e-06
2	1	0	0	1	354.354	-0.41839	-0.418634	-0.00339186	2	-4.1461e-05	1.41995e-06
2	1	0	0	1	354.388	-0.415071	-0.415302	-0.00333079	2	-4.15721e-05	1.38328e-06
2	1	0	1	1	354.421	-0.411725	-0.411936	-0.00327061	2	-4.16818e-05	1.34728e-06
2	1	0	1	1	354.454	-0.408407	-0.408636	-0.00321428	2	-4.17888e-05	1.31347e-06
2	1	0	0	1	354.488	-0.405068	-0.405307	-0.00315653	2	-4.18947e-05	1.27936e-06
2	1	0	1	1	354.521	-0.401729	-0.401977	-0.00310003	2	-4.19986e-05	1.24614e-06
2	1	0	1	1	354.554	-0.398411	-0.39867	-0.00304437	2	-4.21e-05	1.2137e-06
2	1	0	0	1	354.588	-0.395067	-0.395313	-0.00298914	2	-4.22002e-05	1.18165e-06
2	1	0	0	1	354.621	-0.391746	-0.391999	-0.0029355	2	-4.2298e-05	1.15071e-06
2	1	0	1	1	354.654	-0.388408	-0.388661	-0.00288306	2	-4.23946e-05	1.12053e-06
2	1	0	0	1	354.688	-0.385069	-0.385317	-0.00283027	2	-4.24895e-05	1.09055e-06
2	1	0	0	1	354.721	-0.38175	-0.381982	-0.00277791	2	-4.2582e-05	1.06111e-06
2	1	0	1	1	354.754	-0.378409	-0.378634	-0.00272775	2	-4.26734e-05	1.03282e-06
2	1	0	1	1	354.787	-0.375086	-0.375304	-0.00267772	2	-4.27626e-05	1.00496e-06
2	1	0	0	1	354.821	-0.371747	-0.371949	-0.00262853	2	-4.28507e-05	9.77679e-07
2	1	0	1	1	354.854	-0.368409	-0.36863	-0.00257986	2	-4.29371e-05	9.51013e-07
2	1	0	1	1	354.887	-0.36509	-0.365311	-0.00253266	2	-4.30214e-05	9.25207e-07
2	1	0	0	1	354.921	-0.361751	-0.361997	-0.00248464	2	-4.31046e-05	8.99433e-07
2	1	0	0	1	354.954	-0.358426	-0.358657	-0.00243825	2	-4.31858e-05	8.74495e-07
2	1	0	1	1	354.987	-0.355087	-0.355346	-0.0023923	2	-4.32659e-05	8.50096e-07
2	1	0	0	1	355.021	-0.351748	-0.351991	-0.00234565	2	-4.33445e-05	8.25646e-07
2	1	0	0	1	355.054	-0.34843	-0.348656	-0.00229941	2	-4.3421e-05	8.01704e-07
2	1	0	1	1	355.087	-0.345091	-0.345317	-0.00225538	2	-4.34965e-05	7.78822e-07
2	1	0	0	1	355.121	-0.341757	-0.341982	-0.00221032	2	-4.35704e-05	7.55891e-07
2	1	0	0	1	355.154	-0.338427	-0.33863	-0.00216417	2	-4.36426e-05	7.32853e-07
2	1	0	1	1	355.187	-0.335088	-0.335282	-0.00212158	2	-4.37136e-05	7.11327e-07
2	1	0	1	1	355.221	-0.331769	-0.331964	-0.00207838	2	-4.37828e-05	6.89948e-07
2	1	0	0	1	355.254	-0.328431	-0.32862	-0.00203425	2	-4.38509e-05	6.68496e-07
2	1	0	1	1	355.287	-0.325096	-0.325264	-0.00199152	2	-4.39174e-05	6.47769e-07
2	1	0	1	1	355.321	-0.321766	-0.321971	-0.00194955	2	-4.39825e-05	6.27698e-07
2	1	0	0	1	355.354	-0.318428	-0.318637	-0.00190841	2	-4.40464e-05	6.08092e-07
2	1	0	0	1	355.387	-0.315109	-0.315302	-0.00186543	2	-4.41085e-05	5.88174e-07
2	1	0	1	1	355.421	-0.31177	-0.311984	-0.00182428	2	-4.41696e-05	5.69146e-07
2	1	0	0	1	355.454	-0.308438	-0.308651	-0.00178195	2	-4.42291e-05	5.5e-07
2	1	0	0	1	355.487	-0.305106	-0.305301	-0.00174058	2	-4.42872e-05	5.314e-07
2	1	0	1	1	355.521	-0.301767	-0.301971	-0.00170045	2	-4.43441e-05	5.13486e-07
2	1	0	1	1	355.554	-0.298449	-0.298647	-0.00166011	2	-4.43993e-05	4.95787e-07
2	1	0	0	1	355.587	-0.29511	-0.295279	-0.00161811	2	-4.44535e-05	4.77794e-07
2	1	0	1	1	355.62	-0.29178	-0.291965	-0.00157933	2	-4.45062e-05	4.61111e-07
2	1	0	1	1	355.654	-0.288446	-0.288606	-0.00153821	2	-4.45575e-05	4.43937e-07
2	1	0	0	1	355.687	-0.285107	-0.285265	-0.00149855	2	-4.46077e-05	4.27484e-07
2	1	0	0	1	355.72	-0.281788	-0.281941	-0.00146041	2	-4.46563e-05	4.1175e-07
2	1	0	1	1	355.754	-0.27845	-0.278616	-0.00142135	2	-4.47039e-05	3.96011e-07
2	1	0	0	1	355.787	-0.275111	-0.275299	-0.00138361	2	-4.47502e-05	3.80908e-07
2	1	0	0	1	355.82	-0.271786	-0.271955	-0.00134451	2	-4.47949e-05	3.65647e-07
2	1	0	1	1	355.854	-0.268447	-0.268641	-0.00130713	2	-4.48387e-05	3.51149e-07
2	1	0	1	1	355.887	-0.265128	-0.265308	-0.00126955	2	-4.48809e-05	3.36821e-07
2	1	0	0	1	355.92	-0.261789	-0.261965	-0.00123226	2	-4.49221e-05	3.2281e-07
2	1	0	1	1	355.954	-0.258451	-0.258636	-0.00119763	2	-4.49622e-05	3.09749e-07
2	1	0	1	1	355.987	-0.255127	-0.255318	-0.00116235	2	-4.50008e-05	2.96768e-07
2	1	0	0	1	356.02	-0.251787	-0.251962	-0.00112735	2	-4.50385e-05	2.84051e-07
2	1	0	0	1	356.054	-0.248468	-0.248666	-0.00109448	2	-4.50748e-05	2.72161e-07
2	1	0	1	1	356.087	-0.245129	-0.245324	-0.00106157	2	-4.51103e-05	2.60429e-07
2	1	0	0	1	356.12	-0.24179	-0.241977	-0.00102879	2	-4.51447e-05	2.48943e-07
2	1	0	0	1	356.154	-0.238467	-0.238656	-0.000999345	2	-4.51778e-05	2.38499e-07
2	1	0	1	1	356.187	-0.235126	-0.235317	-0.000969731	2	-4.52101e-05	2.28195e-07
2	1	0	1	1	356.22	-0.231807	-0.232022	-0.000942864	2	-4.52414e-05	2.18765e-07
2	1	0	0	1	356.254	-0.228469	-0.228677	-0.000914897	2	-4.52718e-05	2.09216e-07
2	1	0	1	1	356.287	-0.22513	-0.225343	-0.000889073	2	-4.53014e-05	2.00346e-07
2	1	0	1	1	356.32	-0.221809	-0.222012	-0.00086411	2	-4.533e-05	1.91843e-07
2	1	0	0	1	356.354	-0.218466	-0.218665	-0.000840951	2	-4.53579e-05	1.83886e-07
2	1	0	0	1	356.387	-0.215147	-0.215352	-0.000819518	2	-4.5385e-05	1.76485e-07
2	1	0	1	1	356.42	-0.211808	-0.212011	-0.000797656	2	-4.54114e-05	1.69112e-07
2	1	0	0	1	356.454	-0.20847	-0.208654	-0.000777593	2	-4.54372e-05	1.62248e-07
2	1	0	0	1	356.487	-0.205151	-0.205342	-0.000760217	2	-4.54622e-05	1.56104e-07
2	1	0	1	1	356.52	-0.201806	-0.201996	-0.000741352	2	-4.54868e-05	1.4975e-07
2	1	0	1	1	356.553	-0.198487	-0.198664	-0.000724857	2	-4.55106e-05	1.44003e-07
2	1	0	0	1	356.587	-0.195148	-0.195323	-0.000710044	2	-4.5534e-05	1.38688e-07
2	1	0	1	1	356.62	-0.191809	-0.191999	-0.000695438	2	-4.5557e-05	1.33524e-07
2	1	0	1	1	356.653	-0.188491	-0.188702	-0.000681523	2	-4.55793e-05	1.28605e-07
2	1	0	0	1	356.687	-0.185147	-0.185352	-0.000667867	2	-4.56013e-05	1.2379e-07
2	1	0	0	1	356.72	-0.181826	-0.18202	-0.000654654	2	-4.56228e-05	1.1916e-07
2	1	0	1	1	356.753	-0.178488	-0.178695	-0.000642454	2	-4.56439e-05	1.14803e-07
2	1	0	0	1	356.787	-0.175149	-0.175346	-0.000630983	2	-4.56646e-05	1.1064e-07
2	1	0	0	1	356.82	-0.17183	-0.172027	-0.000620267	2	-4.56849e-05	1.06702e-07
2	1	0	1	1	356.853	-0.168489	-0.168695	-0.000608272	2	-4.57049e-05	1.02613e-07
2	1	0	1	1	356.887	-0.165166	-0.165343	-0.000597793	2	-4.57244e-05	9.88412e-08
2	1	0	0	1	356.92	-0.161827	-0.162	-0.000587911	2	-4.57437e-05	9.52418e-08
2	1	0	1	1	356.953	-0.158489	-0.158657	-0.000577741	2	-4.57626e-05	9.16628e-08
2	1	0	1	1	356.987	-0.15517	-0.155337	-0.000568024	2	-4.57811e-05	8.82351e-08
2	1	0	0	1	357.02	-0.151831	-0.152011	-0.000559953	2	-4.57994e-05	8.5119e-08
2	1	0	0	1	357.053	-0.148506	-0.148679	-0.000550753	2	-4.58173e-05	8.18853e-08
2	1	0	1	1	357.087	-0.145167	-0.145343	-0.000542037	2	-4.58351e-05	7.8781e-08
2	1	0	0	1	357.12	-0.141828	-0.142009	-0.00053387	2	-4.58525e-05	7.58144e-08
2	1	0	0	1	357.153	-0.13851	-0.138708	-0.000525111	2	-4.58696e-05	7.28368e-08
2	1	0	1	1	357.187	-0.135171	-0.135345	-0.000516569	2	-4.58864e-05	6.99153e-08
2	1	0	1	1	357.22	-0.131846	-0.132034	-0.000508865	2	-4.59029e-05	6.71874e-08
2	1	0	0	1	357.253	-0.128507	-0.128682	-0.000501469	2	-4.59193e-05	6.45299e-08
2	1	0	1	1	357.287	-0.125168	-0.125337	-0.00049216	2	-4.59354e-05	6.16861e-08
2	1	0	1	1	357.336	-0.12018	-0.120326	-0.00048018	2	-4.59584e-05	5.77781e-08
2	1	0	1	1	357.386	-0.115176	-0.115322	-0.000465631	2	-4.59811e-05	5.36977e-08
2	1	0	1	1	357.42	-0.111846	-0.111987	-0.000459091	2	-4.59962e-05	5.14123e-08
2	1	0	0	1	357.453	-0.108508	-0.108655	-0.00045223	2	-4.60111e-05	4.9137e-08
2	1	0	0	1	357.486	-0.105189	-0.105331	-0.000446112	2	-4.60257e-05	4.69897e-08
2	1	0	1	1	357.52	-0.10185	-0.102015	-0.000437837	2	-4.60401e-05	4.46658e-08
2	1	0	0	1	357.553	-0.0985182	-0.0986749	-0.000431577	2	-4.60543e-05	4.25858e-08
2	1	0	0	1	357.586	-0.0951862	-0.0953572	-0.000424343	2	-4.60683e-05	4.04642e-08
2	1	0	1	1	357.62	-0.0918474	-0.0919932	-0.000416611	2	-4.6082e-05	3.83254e-08
2	1	0	1	1	357.653	-0.0885287	-0.0886743	-0.000411531	2	-4.60955e-05	3.64923e-08
2	1	0	0	1	357.686	-0.08519	-0.0853474	-0.000403884	2	-4.61088e-05	3.44705e-08
2	1	0	1	1	357.72	-0.0818602	-0.0820361	-0.000397501	2	-4.61218e-05	3.26094e-08
2	1	0	1	1	357.753	-0.0785259	-0.0787023	-0.000390412	2	-4.61347e-05	3.07263e-08
2	1	0	0	1	357.786	-0.0751871	-0.0753776	-0.000383301	2	-4.61473e-05	2.88923e-08
2	1	0	0	1	357.82	-0.0718684	-0.0720445	-0.000376317	2	-4.61596e-05	2.71116e-08
2	1	0	1	1	357.853	-0.0685297	-0.068714	-0.000370184	2	-4.61718e-05	2.54368e-08
2	1	0	0	1	357.886	-0.0651909	-0.0653698	-0.000363156	2	-4.61837e-05	2.37395e-08
2	1	0	0	1	357.92	-0.0618655	-0.0620627	-0.000356345	2	-4.61953e-05	2.21157e-08
2	1	0	1	1	357.953	-0.0585268	-0.0587301	-0.000349068	2	-4.62068e-05	2.05008e-08
2	1	0	1	1	357.986	-0.0552081	-0.0553932	-0.000342454	2	-4.6218e-05	1.89696e-08
2	1	0	0	1	358.02	-0.0518693	-0.0520588	-0.00033501	2	-4.6229e-05	1.74402e-08
2	1	0	1	1	358.053	-0.0485306	-0.048717	-0.000327032	2	-4.62398e-05	1.5932e-08
2	1	0	1	1	358.086	-0.0452074	-0.0453891	-0.000321241	2	-4.62502e-05	1.45808e-08
2	1	0	0	1	358.12	-0.0418665	-0.0420469	-0.000313361	2	-4.62605e-05	1.31759e-08
2	1	0	0	1	358.153	-0.0385478	-0.0387019	-0.000305687	2	-4.62705e-05	1.18307e-08
2	1	0	1	1	358.186	-0.035209	-0.0353837	-0.000299472	2	-4.62803e-05	1.05964e-08
2	1	0	0	1	358.22	-0.0318703	-0.0320531	-0.000291785	2	-4.62899e-05	9.35261e-09
2	1	0	0	1	358.253	-0.0285471	-0.0287199	-0.000284107	2	-4.62991e-05	8.15951e-09
2	1	0	1	1	358.286	-0.0252062	-0.0253777	-0.000278092	2	-4.63082e-05	7.05735e-09
2	1	0	1	1	358.319	-0.0218874	-0.0220498	-0.000270537	2	-4.6317e-05	5.96529e-09
2	1	0	0	1	358.353	-0.0185487	-0.0187349	-0.000264247	2	-4.63257e-05	4.95065e-09
2	1	0	1	1	358.386	-0.01521	-0.0153845	-0.000256702	2	-4.63341e-05	3.94923e-09
2	1	0	1	1	358.419	-0.011889	-0.0120618	-0.000248972	2	-4.63422e-05	3.00304e-09
2	1	0	0	1	358.453	-0.00854586	-0.00871781	-0.000241921	2	-4.63501e-05	2.10902e-09
2	1	0	0	1	358.486	-0.00522712	-0.00540372	-0.000234654	2	-4.63577e-05	1.268e-09
2	1	0	1	1	358.519	-0.0018884	-0.00206181	-0.000227982	2	-4.63651e-05	4.70057e-10
2	1	0	0	1	358.553	0.00145628	0.00129172	-0.000218824	2	-4.63722e-05	2.82659e-10
2	1	0	0	1	358.586	0.00476906	0.00463413	-0.000212069	2	-4.63791e-05	9.82756e-10
2	1	0	1	1	358.619	0.00811446	0.00796411	-0.000205188	2	-4.63858e-05	1.63414e-09
2	1	0	1	1	358.653	0.0114332	0.0112908	-0.000198415	2	-4.63922e-05	2.24027e-09
2	1	0	0	1	358.686	0.0147719	0.0146672	-0.000189902	2	-4.63983e-05	2.78534e-09
2	1	0	1	1	358.719	0.0181106	0.0179822	-0.000183583	2	-4.64043e-05	3.30123e-09
2	1	0	1	1	358.753	0.0214294	0.0212936	-0.000176497	2	-4.641e-05	3.75825e-09
2	1	0	0	1	358.786	0.0247725	0.0246328	-0.000168908	2	-4.64154e-05	4.16068e-09
2	1	0	0	1	358.819	0.0280935	0.0279435	-0.00016209	2	-4.64206e-05	4.52936e-09
2	1	0	1	1	358.853	0.0314322	0.0312795	-0.000154474	2	-4.64256e-05	4.83188e-09
2	1	0	0	1	358.886	0.0347709	0.0346337	-0.000146424	2	-4.64303e-05	5.07119e-09
2	1	0	0	1	358.919	0.0380897	0.0379689	-0.000140093	2	-4.64348e-05	5.31919e-09
2	1	0	1	1	358.953	0.0414306	0.0413063	-0.000132378	2	-4.6439e-05	5.46806e-09
2	1	0	1	1	358.986	0.0447538	0.0446302	-0.000124043	2	-4.6443e-05	5.53608e-09
2	1	0	0	1	359.019	0.0480925	0.0479912	-0.000117676	2	-4.64467e-05	5.64739e-09
2	1	0	1	1	359.053	0.0514313	0.0513208	-0.000110429	2	-4.64502e-05	5.66731e-09
2	1	0	1	1	359.086	0.05475	0.0546546	-0.000102848	2	-4.64535e-05	5.62109e-09
2	1	0	0	1	359.119	0.0580909	0.0580106	-9.51609e-05	2	-4.64565e-05	5.52034e-09
2	1	0	0	1	359.152	0.0614141	0.0613283	-8.83478e-05	2	-4.64592e-05	5.41822e-09
2	1	0	1	1	359.186	0.0647528	0.064634	-8.18676e-05	2	-4.64618e-05	5.29143e-09
2	1	0	0	1	359.219	0.0680916	0.0679869	-7.35619e-05	2	-4.64641e-05	5.00125e-09
2	1	0	0	1	359.252	0.0714103	0.0712972	-6.65178e-05	2	-4.64661e-05	4.74253e-09
2	1	0	1	1	359.286	0.074749	0.0746352	-5.93572e-05	2	-4.64679e-05	4.43014e-09
2	1	0	1	1	359.319	0.0780744	0.0779721	-5.03285e-05	2	-4.64694e-05	3.92422e-09
2	1	0	0	1	359.352	0.0814132	0.0813048	-4.44571e-05	2	-4.64707e-05	3.61458e-09
2	1	0	1	1	359.386	0.0847519	0.0846449	-3.64643e-05	2	-4.64717e-05	3.08652e-09
2	1	0	1	1	359.419	0.0880706	0.0879394	-2.94074e-05	2	-4.64725e-05	2.58607e-09
2	1	0	0	1	359.452	0.0914093	0.0912869	-2.16755e-05	2	-4.64731e-05	1.97869e-09
2	1	0	1	1	359.486	0.0947436	0.0946247	-1.35684e-05	2	-4.64734e-05	1.28391e-09
2	1	0	1	1	359.519	0.0980735	0.0979541	-5.74079e-06	2	-4.64734e-05	5.62334e-10
2	0	0	0	1	359.538	0.0999061	0.0997803	-6.21132e-06	2	-4.64733e-05	6.19767e-10
2	0	0	1	1	359.556	0.0980668	0.0979168	-0.000251007	2	-4.64776e-05	2.45778e-08
2	0	0	1	1	359.589	0.0947458	0.0945721	-0.000350498	2	-4.64881e-05	3.31474e-08
2	0	0	0	1	359.623	0.0914027	0.0912418	-0.00040035	2	-4.6501e-05	3.65287e-08
2	0	0	0	1	359.656	0.0880839	0.0879079	-0.000443265	2	-4.65153e-05	3.89664e-08
2	0	0	1	1	359.689	0.0847452	0.0845977	-0.000480209	2	-4.65311e-05	4.06246e-08
2	0	0	0	1	359.723	0.0814065	0.0812524	-0.000515528	2	-4.6548e-05	4.18879e-08
2	0	0	0	1	359.756	0.0780878	0.0779273	-0.000549151	2	-4.6566e-05	4.27938e-08
2	0	0	1	1	359.789	0.0747424	0.0745706	-0.000581067	2	-4.65852e-05	4.33305e-08
2	0	0	1	1	359.823	0.0714236	0.071244	-0.000610444	2	-4.66053e-05	4.34905e-08
2	0	0	0	1	359.856	0.0680849	0.067921	-0.000639459	2	-4.66265e-05	4.34327e-08
2	0	0	1	1	359.889	0.0647462	0.0645873	-0.000666881	2	-4.66487e-05	4.3072e-08
2	0	0	1	1	359.923	0.0614274	0.0612792	-0.000693784	2	-4.66716e-05	4.25145e-08
2	0	0	0	1	359.956	0.0580843	0.0579376	-0.000720308	2	-4.66955e-05	4.17329e-08
2	0	0	0	1	359.989	0.0547633	0.0545884	-0.000746681	2	-4.67202e-05	4.07601e-08
2	0	0	1	1	360.023	0.0514246	0.0512486	-0.000771344	2	-4.67459e-05	3.95303e-08
2	0	0	0	1	360.056	0.0480859	0.047914	-0.000794832	2	-4.67723e-05	3.80836e-08
2	0	0	0	1	360.089	0.0447671	0.044582	-0.000820372	2	-4.67995e-05	3.65738e-08
2	0	0	1	1	360.123	0.041424	0.0412234	-0.000843402	2	-4.68276e-05	3.47679e-08
2	0	0	1	1	360.156	0.038103	0.0379083	-0.00086469	2	-4.68562e-05	3.2779e-08
2	0	0	0	1	360.189	0.0347643	0.0345818	-0.0008884	2	-4.68858e-05	3.07225e-08
2	0	0	1	1	360.223	0.0314256	0.031214	-0.000909918	2	-4.69162e-05	2.84021e-08
2	0	0	1	1	360.256	0.0281068	0.0278952	-0.000931538	2	-4.69471e-05	2.59854e-08
2	0	0	0	1	360.289	0.0247659	0.0245575	-0.000952977	2	-4.69789e-05	2.34027e-08
2	0	0	0	1	360.322	0.0214427	0.0212439	-0.000972842	2	-4.70111e-05	2.0667e-08
2	0	0	1	1	360.356	0.018104	0.0179193	-0.000993774	2	-4.70443e-05	1.78077e-08
2	0	0	0	1	360.406	0.0131038	0.0129466	-0.00101982	2	-4.70955e-05	1.32032e-08
2	0	0	1	1	360.456	0.00810779	0.00794634	-0.00104585	2	-4.71476e-05	8.31065e-09
2	0	0	1	1	360.489	0.00478239	0.00463963	-0.00106485	2	-4.71832e-05	4.94049e-09
2	0	0	0	1	360.522	0.00144367	0.00126197	-0.00108547	2	-4.72196e-05	1.36984e-09
2	0	0	1	1	360.556	-0.00189506	-0.00209314	-0.00110332	2	-4.72567e-05	2.3094e-09
2	0	0	1	1	360.589	-0.00521379	-0.00539256	-0.00112114	2	-4.72942e-05	6.04579e-09
2	0	0	0	1	360.622	-0.00855252	-0.00873664	-0.00114022	2	-4.73325e-05	9.96173e-09
2	0	0	1	1	360.656	-0.0118868	-0.0120788	-0.00115852	2	-4.73713e-05	1.39936e-08
2	0	0	1	1	360.689	-0.0152166	-0.0154072	-0.00117639	2	-4.74107e-05	1.81248e-08
2	0	0	0	1	360.722	-0.0185554	-0.0187416	-0.00119436	2	-4.74508e-05	2.23842e-08
2	0	0	0	1	360.756	-0.0218741	-0.0220597	-0.00121112	2	-4.74913e-05	2.6717e-08
2	0	0	1	1	360.789	-0.0252128	-0.0253693	-0.00122882	2	-4.75326e-05	3.11743e-08
2	0	0	0	1	360.822	-0.0285449	-0.0287181	-0.00124669	2	-4.75743e-05	3.58024e-08
2	0	0	0	1	360.856	-0.031877	-0.0320479	-0.00126411	2	-4.76167e-05	4.05121e-08
2	0	0	1	1	360.889	-0.0352157	-0.0354085	-0.00128055	2	-4.76597e-05	4.53423e-08
2	0	0	1	1	360.922	-0.0385344	-0.0387085	-0.00129718	2	-4.7703e-05	5.02118e-08
2	0	0	0	1	360.956	-0.0418732	-0.0420708	-0.00131521	2	-4.77472e-05	5.53322e-08
2	0	0	1	1	360.989	-0.0452052	-0.0454066	-0.00133109	2	-4.77917e-05	6.04404e-08
2	0	0	1	1	361.022	-0.0485373	-0.0487406	-0.00134603	2	-4.78368e-05	6.56061e-08
2	0	0	0	1	361.056	-0.051876	-0.0520769	-0.00136325	2	-4.78826e-05	7.0994e-08
2	0	0	0	1	361.089	-0.0551947	-0.0553925	-0.0013787	2	-4.79287e-05	7.63695e-08
2	0	0	1	1	361.122	-0.0585335	-0.0587388	-0.00139428	2	-4.79755e-05	8.18981e-08
2	0	0	0	1	361.155	-0.0618633	-0.062056	-0.0014099	2	-4.80227e-05	8.74929e-08
2	0	0	0	1	361.189	-0.0651976	-0.065371	-0.00142586	2	-4.80705e-05	9.32102e-08
2	0	0	1	1	361.222	-0.0685363	-0.068692	-0.00144094	2	-4.81189e-05	9.89812e-08
2	0	0	1	1	361.255	-0.0718551	-0.0720374	-0.00145717	2	-4.81675e-05	1.04971e-07
2	0	0	0	1	361.289	-0.0751938	-0.0753662	-0.00147238	2	-4.8217e-05	1.10968e-07
2	0	0	1	1	361.322	-0.0785325	-0.0787304	-0.00148722	2	-4.82669e-05	1.17089e-07
2	0	0	1	1	361.355	-0.0818579	-0.0820515	-0.00150372	2	-4.83171e-05	1.23382e-07
2	0	0	0	1	361.389	-0.0851966	-0.0853784	-0.00151681	2	-4.83681e-05	1.29502e-07
2	0	0	0	1	361.422	-0.0885154	-0.0886958	-0.00153228	2	-4.84192e-05	1.35907e-07
2	0	0	1	1	361.455	-0.0918541	-0.0919986	-0.00154755	2	-4.84712e-05	1.42373e-07
2	0	0	0	1	361.489	-0.0951928	-0.0953629	-0.001563	2	-4.85236e-05	1.49052e-07
2	0	0	0	1	361.522	-0.098516	-0.0986824	-0.001578	2	-4.85763e-05	1.55721e-07
2	0	0	1	1	361.555	-0.101857	-0.102028	-0.00159175	2	-4.86298e-05	1.62402e-07
2	0	0	1	1	361.589	-0.105176	-0.105358	-0.00160677	2	-4.86834e-05	1.69285e-07
2	0	0	0	1	361.622	-0.108514	-0.108675	-0.00162078	2	-4.87378e-05	1.76139e-07
2	0	0	1	1	361.655	-0.111853	-0.112015	-0.00163567	2	-4.87927e-05	1.83219e-07
2	0	0	1	1	361.689	-0.115174	-0.115341	-0.00165129	2	-4.88478e-05	1.90461e-07
2	0	0	0	1	361.722	-0.118517	-0.118685	-0.00166561	2	-4.89037e-05	1.97683e-07
2	0	0	0	1	361.755	-0.121836	-0.121998	-0.0016795	2	-4.89598e-05	2.04895e-07
2	0	0	1	1	361.789	-0.125175	-0.125331	-0.001695	2	-4.90167e-05	2.12435e-07
2	0	0	0	1	361.822	-0.128513	-0.128697	-0.00170975	2	-4.90741e-05	2.20039e-07
2	0	0	0	1	361.855	-0.131832	-0.132008	-0.00172342	2	-4.91316e-05	2.27506e-07
2	0	0	1	1	361.889	-0.135178	-0.135352	-0.00173882	2	-4.91899e-05	2.35353e-07
2	0	0	1	1	361.922	-0.138496	-0.138676	-0.00175303	2	-4.92484e-05	2.43103e-07
2	0	0	0	1	361.955	-0.141835	-0.14203	-0.0017677	2	-4.93077e-05	2.51066e-07
2	0	0	1	1	361.989	-0.145174	-0.145363	-0.00178295	2	-4.93676e-05	2.59175e-07
2	0	0	1	1	362.022	-0.148493	-0.148691	-0.00179602	2	-4.94275e-05	2.67051e-07
2	0	0	0	1	362.055	-0.151838	-0.152019	-0.00181189	2	-4.94883e-05	2.7544e-07
2	0	0	0	1	362.088	-0.155157	-0.155341	-0.00182584	2	-4.95492e-05	2.83629e-07
2	0	0	1	1	362.122	-0.158495	-0.158674	-0.00184157	2	-4.9611e-05	2.92209e-07
2	0	0	0	1	362.155	-0.161834	-0.162038	-0.00185646	2	-4.96733e-05	3.00817e-07
2	0	0	0	1	362.188	-0.165153	-0.165353	-0.00187068	2	-4.97357e-05	3.09322e-07
2	0	0	1	1	362.222	-0.168496	-0.168704	-0.00188681	2	-4.9799e-05	3.18312e-07
2	0	0	1	1	362.255	-0.171817	-0.172008	-0.00190187	2	-4.98624e-05	3.27136e-07
2	0	0	0	1	362.288	-0.175156	-0.17534	-0.00191627	2	-4.99267e-05	3.36e-07
2	0	0	1	1	362.322	-0.178494	-0.178689	-0.00193329	2	-4.99915e-05	3.45457e-07
2	0	0	1	1	362.355	-0.181813	-0.18201	-0.00194901	2	-5.00564e-05	3.5474e-07
2	0	0	0	1	362.388	-0.185154	-0.185364	-0.00196519	2	-5.01223e-05	3.64275e-07
2	0	0	0	1	362.422	-0.188477	-0.188687	-0.00198269	2	-5.01884e-05	3.74107e-07
2	0	0	1	1	362.455	-0.191816	-0.191992	-0.00199771	2	-5.02554e-05	3.83544e-07
2	0	0	0	1	362.488	-0.195155	-0.195344	-0.00201601	2	-5.0323e-05	3.93814e-07
2	0	0	0	1	362.522	-0.198473	-0.198661	-0.00203494	2	-5.03907e-05	4.04263e-07
2	0	0	1	1	362.555	-0.201812	-0.201998	-0.00205433	2	-5.04595e-05	4.1497e-07
2	0	0	1	1	362.588	-0.205138	-0.205348	-0.00207334	2	-5.05286e-05	4.25757e-07
2	0	0	0	1	362.622	-0.208476	-0.208679	-0.00209344	2	-5.05987e-05	4.36856e-07
2	0	0	1	1	362.655	-0.211815	-0.212002	-0.00211655	2	-5.06696e-05	4.48712e-07
2	0	0	1	1	362.688	-0.215134	-0.215345	-0.00213799	2	-5.07407e-05	4.60405e-07
2	0	0	0	1	362.722	-0.218472	-0.218668	-0.00216006	2	-5.0813e-05	4.72337e-07
2	0	0	1	1	362.755	-0.221807	-0.222022	-0.00218577	2	-5.08859e-05	4.8529e-07
2	0	0	1	1	362.788	-0.225137	-0.225345	-0.00221109	2	-5.09597e-05	4.98258e-07
2	0	0	0	1	362.822	-0.228475	-0.228685	-0.00223713	2	-5.10345e-05	5.11599e-07
2	0	0	0	1	362.855	-0.231794	-0.232014	-0.00226579	2	-5.11098e-05	5.25694e-07
2	0	0	1	1	362.888	-0.235133	-0.235323	-0.00229395	2	-5.11864e-05	5.3982e-07
2	0	0	0	1	362.921	-0.238465	-0.238661	-0.00232584	2	-5.12639e-05	5.55088e-07
2	0	0	0	1	362.955	-0.241797	-0.24199	-0.00235866	2	-5.13424e-05	5.70773e-07
2	0	0	1	1	362.988	-0.245136	-0.245334	-0.00239269	2	-5.14223e-05	5.87008e-07
2	0	0	1	1	363.021	-0.248454	-0.24866	-0.00242705	2	-5.15029e-05	6.0351e-07
2	0	0	0	1	363.055	-0.251793	-0.252004	-0.00246283	2	-5.15851e-05	6.20645e-07
2	0	0	1	1	363.088	-0.255125	-0.255311	-0.00249941	2	-5.16682e-05	6.38126e-07
2	0	0	1	1	363.121	-0.258457	-0.258655	-0.00253917	2	-5.17527e-05	6.56768e-07
2	0	0	0	1	363.155	-0.261796	-0.261977	-0.00257772	2	-5.18387e-05	6.75304e-07
2	0	0	0	1	363.188	-0.265115	-0.265301	-0.00261971	2	-5.19255e-05	6.95012e-07
2	0	0	1	1	363.221	-0.268453	-0.268663	-0.00266151	2	-5.20143e-05	7.15049e-07
2	0	0	0	1	363.255	-0.271783	-0.271995	-0.00270225	2	-5.21041e-05	7.34999e-07
2	0	0	0	1	363.288	-0.275118	-0.275298	-0.00274599	2	-5.21954e-05	7.55968e-07
2	0	0	1	1	363.321	-0.278456	-0.278634	-0.00278897	2	-5.22884e-05	7.77102e-07
2	0	0	1	1	363.355	-0.281775	-0.281945	-0.00283339	2	-5.23823e-05	7.98862e-07
2	0	0	0	1	363.388	-0.285114	-0.285293	-0.00287902	2	-5.24782e-05	8.21362e-07
2	0	0	1	1	363.421	-0.288453	-0.288621	-0.00292423	2	-5.25757e-05	8.43996e-07
2	0	0	1	1	363.455	-0.291778	-0.291981	-0.00297042	2	-5.26741e-05	8.67307e-07
2	0	0	0	1	363.488	-0.295117	-0.295312	-0.00301703	2	-5.27746e-05	8.90964e-07
2	0	0	0	1	363.521	-0.298435	-0.298633	-0.00306487	2	-5.28761e-05	9.15271e-07
2	0	0	1	1	363.555	-0.301774	-0.301992	-0.00310972	2	-5.29798e-05	9.39111e-07
2	0	0	0	1	363.588	-0.305113	-0.305313	-0.00315764	2	-5.3085e-05	9.64068e-07
2	0	0	0	1	363.621	-0.308436	-0.308675	-0.00320592	2	-5.31912e-05	9.89586e-07
2	0	0	1	1	363.655	-0.311777	-0.312014	-0.00325358	2	-5.32996e-05	1.01517e-06
2	0	0	1	1	363.688	-0.315096	-0.31531	-0.00330092	2	-5.34089e-05	1.04081e-06
2	0	0	0	1	363.721	-0.318434	-0.318665	-0.00334897	2	-5.35206e-05	1.0672e-06
2	0	0	1	1	363.755	-0.321773	-0.321988	-0.00339718	2	-5.36338e-05	1.09385e-06
2	0	0	1	1	363.788	-0.325094	-0.325289	-0.00344542	2	-5.37479e-05	1.12076e-06
2	0	0	0	1	363.821	-0.328437	-0.328663	-0.00349627	2	-5.38644e-05	1.14909e-06
2	0	0	0	1	363.854	-0.331756	-0.331969	-0.00354443	2	-5.39818e-05	1.17664e-06
2	0	0	1	1	363.888	-0.335095	-0.335315	-0.0035946	2	-5.41016e-05	1.20532e-06
2	0	0	0	1	363.921	-0.338433	-0.33866	-0.00364433	2	-5.4223e-05	1.23419e-06
2	0	0	0	1	363.954	-0.341754	-0.342004	-0.00369455	2	-5.43454e-05	1.26355e-06
2	0	0	1	1	363.988	-0.345098	-0.345351	-0.00374438	2	-5.44702e-05	1.29312e-06
2	0	0	1	1	364.021	-0.348416	-0.348656	-0.00379415	2	-5.45959e-05	1.32286e-06
2	0	0	0	1	364.054	-0.351755	-0.352015	-0.0038455	2	-5.47241e-05	1.35367e-06
2	0	0	1	1	364.088	-0.355094	-0.355332	-0.00389522	2	-5.48539e-05	1.3841e-06
2	0	0	1	1	364.121	-0.358412	-0.358664	-0.00394638	2	-5.49846e-05	1.41542e-06
2	0	0	0	1	364.154	-0.361758	-0.361989	-0.00399701	2	-5.51178e-05	1.44687e-06
2	0	0	0	1	364.188	-0.365077	-0.365296	-0.00404889	2	-5.5252e-05	1.47905e-06
2	0	0	1	1	364.221	-0.368415	-0.368641	-0.00410054	2	-5.53886e-05	1.51163e-06
2	0	0	0	1	364.254	-0.371754	-0.37199	-0.00415387	2	-5.5527e-05	1.5452e-06
2	0	0	0	1	364.288	-0.375073	-0.375293	-0.00420574	2	-5.56663e-05	1.57838e-06
2	0	0	1	1	364.321	-0.378416	-0.378629	-0.0042601	2	-5.58083e-05	1.613e-06
2	0	0	1	1	364.354	-0.381737	-0.381984	-0.00431572	2	-5.59512e-05	1.64854e-06
2	0	0	0	1	364.388	-0.385076	-0.385329	-0.00437049	2	-5.60968e-05	1.68408e-06
2	0	0	1	1	364.421	-0.388414	-0.388651	-0.00442445	2	-5.62443e-05	1.71956e-06
2	0	0	1	1	364.454	-0.391733	-0.391982	-0.00448052	2	-5.63926e-05	1.75628e-06
2	0	0	0	1	364.488	-0.395074	-0.395324	-0.00453773	2	-5.65438e-05	1.79387e-06
2	0	0	0	1	364.521	-0.398397	-0.39865	-0.00459532	2	-5.6696e-05	1.83192e-06
2	0	0	1	1	364.554	-0.401736	-0.40198	-0.00465249	2	-5.6851e-05	1.87021e-06
2	0	0	0	1	364.588	-0.405075	-0.405311	-0.00471152	2	-5.7008e-05	1.90963e-06
2	0	0	0	1	364.621	-0.408393	-0.408618	-0.00477123	2	-5.71659e-05	1.94961e-06
2	0	0	1	1	364.654	-0.411732	-0.411961	-0.00483123	2	-5.73269e-05	1.99028e-06
2	0	0	1	1	364.687	-0.415058	-0.41529	-0.00489396	2	-5.74889e-05	2.03241e-06
2	0	0	0	1	364.721	-0.418396	-0.418642	-0.00495573	2	-5.76539e-05	2.07468e-06
2	0	0	1	1	364.754	-0.421735	-0.421969	-0.00501834	2	-5.78211e-05	2.11758e-06
2	0	0	1	1	364.787	-0.425054	-0.425292	-0.00508238	2	-5.79893e-05	2.16149e-06
2	0	0	0	1	364.821	-0.428392	-0.428617	-0.00514639	2	-5.81607e-05	2.20583e-06
2	0	0	1	1	364.854	-0.431727	-0.431943	-0.00521178	2	-5.83337e-05	2.25119e-06
2	0	0	1	1	364.887	-0.435057	-0.435272	-0.00528046	2	-5.8509e-05	2.29844e-06
2	0	0	0	1	364.921	-0.438395	-0.438632	-0.00534817	2	-5.86871e-05	2.34588e-06
2	0	0	0	1	364.954	-0.441714	-0.441937	-0.00541521	2	-5.88663e-05	2.39318e-06
2	0	0	1	1	364.987	-0.445053	-0.445282	-0.00548681	2	-5.9049e-05	2.44317e-06
2	0	0	0	1	365.021	-0.448387	-0.448615	-0.00555569	2	-5.92334e-05	2.49236e-06
2	0	0	0	1	365.054	-0.451717	-0.45193	-0.00562746	2	-5.94201e-05	2.54322e-06
2	0	0	1	1	365.087	-0.455056	-0.455274	-0.0057003	2	-5.96099e-05	2.5952e-06
2	0	0	1	1	365.121	-0.458374	-0.458607	-0.00577518	2	-5.9801e-05	2.64854e-06
2	0	0	0	1	365.154	-0.461713	-0.461927	-0.00584968	2	-5.99957e-05	2.70213e-06
2	0	0	1	1	365.187	-0.465045	-0.465258	-0.00592487	2	-6.01923e-05	2.75659e-06
2	0	0	1	1	365.221	-0.468377	-0.468611	-0.0060041	2	-6.03915e-05	2.81358e-06
2	0	0	0	1	365.254	-0.471716	-0.471962	-0.00607905	2	-6.05939e-05	2.86908e-06
2	0	0	0	1	365.287	-0.475035	-0.47528	-0.00615776	2	-6.07976e-05	2.92666e-06
2	0	0	1	1	365.321	-0.478373	-0.478623	-0.00623785	2	-6.10052e-05	2.98558e-06
2	0	0	0	1	365.354	-0.481703	-0.481963	-0.0063192	2	-6.12148e-05	3.04562e-06
2	0	0	0	1	365.387	-0.485038	-0.485297	-0.0063993	2	-6.14272e-05	3.10556e-06
2	0	0	1	1	365.421	-0.488376	-0.488637	-0.00648254	2	-6.16429e-05	3.16761e-06
2	0	0	1	1	365.454	-0.491695	-0.491931	-0.00656355	2	-6.186e-05	3.22881e-06
2	0	0	0	1	365.487	-0.495034	-0.49528	-0.00664828	2	-6.20812e-05	3.29276e-06
2	0	0	1	1	365.521	-0.498372	-0.498612	-0.00673394	2	-6.23053e-05	3.35763e-06
2	0	0	1	1	365.554	-0.501698	-0.501939	-0.00682194	2	-6.25309e-05	3.42419e-06
2	0	0	0	1	365.587	-0.505037	-0.505279	-0.00690903	2	-6.27608e-05	3.49099e-06
2	0	0	0	1	365.62	-0.508355	-0.508614	-0.00699611	2	-6.29922e-05	3.55832e-06
2	0	0	1	1	365.654	-0.511694	-0.511944	-0.00708669	2	-6.3228e-05	3.62799e-06
2	0	0	0	1	365.687	-0.515033	-0.515277	-0.00717563	2	-6.34668e-05	3.69744e-06
2	0	0	0	1	365.72	-0.518356	-0.518596	-0.00726563	2	-6.37071e-05	3.76793e-06
2	0	0	1	1	365.754	-0.521697	-0.521941	-0.00735923	2	-6.39519e-05	3.84108e-06
2	0	0	1	1	365.787	-0.525016	-0.525263	-0.00745143	2	-6.41984e-05	3.91396e-06
2	0	0	0	1	365.82	-0.528354	-0.528592	-0.00754459	2	-6.44494e-05	3.98801e-06
2	0	0	1	1	365.854	-0.531693	-0.531934	-0.00763942	2	-6.47036e-05	4.06367e-06
2	0	0	1	1	365.887	-0.535014	-0.535231	-0.00773465	2	-6.49594e-05	4.13982e-06
2	0	0	0	1	365.92	-0.538357	-0.538589	-0.00783079	2	-6.52199e-05	4.21758e-06
2	0	0	0	1	365.954	-0.541676	-0.541928	-0.00792831	2	-6.54821e-05	4.29658e-06
2	0	0	1	1	365.987	-0.545015	-0.545257	-0.00802434	2	-6.57491e-05	4.37532e-06
2	0	0	0	1	366.02	-0.548353	-0.548584	-0.00812574	2	-6.60194e-05	4.45765e-06
2	0	0	0	1	366.054	-0.551674	-0.551915	-0.0082232	2	-6.62914e-05	4.53851e-06
2	0	0	1	1	366.087	-0.555018	-0.555287	-0.00832603	2	-6.65684e-05	4.62334e-06
2	0	0	1	1	366.12	-0.558336	-0.55859	-0.00842605	2	-6.68471e-05	4.70671e-06
2	0	0	0	1	366.154	-0.561675	-0.561935	-0.00852867	2	-6.71309e-05	4.79256e-06
2	0	0	1	1	366.187	-0.565014	-0.565277	-0.00863425	2	-6.74181e-05	4.88074e-06
2	0	0	1	1	366.22	-0.568332	-0.568609	-0.0087366	2	-6.7707e-05	4.96771e-06
2	0	0	0	1	366.254	-0.571678	-0.571926	-0.00884448	2	-6.80012e-05	5.05839e-06
2	0	0	0	1	366.287	-0.574997	-0.575256	-0.0089462	2	-6.82972e-05	5.14635e-06
2	0	0	1	1	366.32	-0.578335	-0.57859	-0.00905288	2	-6.85984e-05	5.2379e-06
2	0	0	0	1	366.354	-0.581674	-0.581905	-0.00916222	2	-6.89032e-05	5.33154e-06
2	0	0	0	1	366.387	-0.584993	-0.585242	-0.00927421	2	-6.92098e-05	5.42766e-06
2	0	0	1	1	366.42	-0.588336	-0.588608	-0.00938405	2	-6.9522e-05	5.52353e-06
2	0	0	1	1	366.453	-0.591657	-0.591927	-0.00949325	2	-6.9836e-05	5.61932e-06
2	0	0	0	1	366.487	-0.594996	-0.595256	-0.00960694	2	-7.01556e-05	5.71858e-06
2	0	0	1	1	366.518	-0.598165	-0.598421	-0.00971015	2	-7.04622e-05	5.81076e-06
2	0	0	1	1	366.535	-0.599827	-0.60005	-0.00976308	2	-7.06249e-05	5.85834e-06