File: TAP_Report/Data/Res_PB/100 uM RS 10mM PB_02_CV_C01_2.mpt
EC-Lab ASCII FILE
Nb header lines : 53

Cyclic Voltammetry

Run on channel : 1 (SN 0696)
User :
Electrode connection : standard
Ewe ctrl range : min = -10.00 V, max = 10.00 V
Ewe,I filtering : 50 kHz
Channel : Grounded
Acquisition started on : 05/17/2017 12:53:20
Saved on :
	File : 100 uM RS 10mM PB_02_CV_C01.mpr
	Directory : \\userfs\st659\w2k\EC-Lab\Data\ITO Characterisation 17-5-17\
	Host : 144.32.136.43
Device : SP-300 (SN 0182)
Address : USB
EC-Lab for windows v10.44 (software)
Internet server v10.44 (firmware)
Command interpretor v10.44 (firmware)
Electrode material :
Initial state :
Electrolyte :
Comments :
Cable : standard
Electrode surface area : 0.001 cm²
Characteristic mass : 0.001 g
Equivalent Weight : 0.000 g/eq.
Density : 0.000 g/cm3
Ei (V)              0.000
vs.                 Eoc
dE/dt               50.000
dE/dt unit          mV/s
E1 (V)              0.100
vs.                 Ref
Step percent        50
N                   10
E range min (V)     -10.000
E range max (V)     10.000
I Range             Auto
I Range min         Unset
I Range max         Unset
I Range init        Unset
Bandwidth           8
E2 (V)              -0.600
vs.                 Ref
nc cycles           2
Reverse Scan        1
Ef (V)              0.000
vs.                 Eoc

mode	ox/red	error	control changes	counter inc.	time/s	control/V	Ewe/V	<I>/mA	cycle number	(Q-Qo)/C	P/W
2	1	0	0	1	265.168	-0.60016	-0.600382	-0.00999121	2	-5.90932e-05	5.99854e-06
2	1	0	0	1	265.204	-0.598324	-0.598546	-0.00971552	2	-5.94513e-05	5.81519e-06
2	1	0	1	1	265.271	-0.594992	-0.595228	-0.00943323	2	-6.00873e-05	5.61493e-06
2	1	0	0	1	265.338	-0.591664	-0.591896	-0.00918802	2	-6.07059e-05	5.43835e-06
2	1	0	1	1	265.404	-0.588334	-0.58857	-0.00896217	2	-6.13088e-05	5.27487e-06
2	1	0	0	1	265.471	-0.585003	-0.585219	-0.00875381	2	-6.18974e-05	5.1229e-06
2	1	0	0	1	265.538	-0.581664	-0.581884	-0.00855254	2	-6.24741e-05	4.97658e-06
2	1	0	1	1	265.604	-0.578332	-0.578562	-0.00836217	2	-6.3036e-05	4.83803e-06
2	1	0	0	1	265.671	-0.575003	-0.575234	-0.00818302	2	-6.35856e-05	4.70715e-06
2	1	0	1	1	265.737	-0.571675	-0.571918	-0.00800754	2	-6.41234e-05	4.57965e-06
2	1	0	0	1	265.804	-0.568342	-0.568591	-0.00784122	2	-6.46498e-05	4.45845e-06
2	1	0	0	1	265.871	-0.565004	-0.565241	-0.00768056	2	-6.51669e-05	4.34137e-06
2	1	0	1	1	265.937	-0.561673	-0.561907	-0.0075254	2	-6.5672e-05	4.22857e-06
2	1	0	0	1	266.004	-0.558343	-0.558566	-0.00737758	2	-6.6167e-05	4.12086e-06
2	1	0	1	1	266.071	-0.555014	-0.555253	-0.00723285	2	-6.66522e-05	4.01606e-06
2	1	0	1	1	266.137	-0.551678	-0.551892	-0.00709158	2	-6.71287e-05	3.91379e-06
2	1	0	0	1	266.204	-0.548343	-0.548558	-0.0069572	2	-6.75959e-05	3.81643e-06
2	1	0	1	1	266.271	-0.545014	-0.545227	-0.00682543	2	-6.80536e-05	3.72141e-06
2	1	0	0	1	266.337	-0.541683	-0.541894	-0.00669883	2	-6.85027e-05	3.63006e-06
2	1	0	1	1	266.404	-0.538354	-0.538584	-0.00657388	2	-6.89434e-05	3.54058e-06
2	1	0	1	1	266.47	-0.535017	-0.535222	-0.00645353	2	-6.93766e-05	3.45407e-06
2	1	0	0	1	266.537	-0.531683	-0.531904	-0.00633751	2	-6.98019e-05	3.37095e-06
2	1	0	1	1	266.604	-0.528354	-0.528578	-0.00622318	2	-7.02189e-05	3.28944e-06
2	1	0	0	1	266.67	-0.525022	-0.525254	-0.00611194	2	-7.06285e-05	3.21032e-06
2	1	0	1	1	266.737	-0.521694	-0.521922	-0.00600215	2	-7.10306e-05	3.13266e-06
2	1	0	1	1	266.804	-0.518358	-0.518587	-0.00589588	2	-7.14262e-05	3.05753e-06
2	1	0	0	1	266.87	-0.515023	-0.51525	-0.00579356	2	-7.18149e-05	2.98513e-06
2	1	0	1	1	266.937	-0.511694	-0.511921	-0.00569462	2	-7.21962e-05	2.9152e-06
2	1	0	0	1	267.004	-0.508363	-0.508595	-0.00559495	2	-7.25709e-05	2.84556e-06
2	1	0	1	1	267.07	-0.505033	-0.505247	-0.0054983	2	-7.29391e-05	2.778e-06
2	1	0	1	1	267.137	-0.501699	-0.501922	-0.00540608	2	-7.33016e-05	2.71343e-06
2	1	0	0	1	267.204	-0.498362	-0.498576	-0.00531257	2	-7.36578e-05	2.64872e-06
2	1	0	1	1	267.27	-0.495034	-0.495242	-0.00522377	2	-7.40075e-05	2.58703e-06
2	1	0	0	1	267.337	-0.491704	-0.491911	-0.00513468	2	-7.43512e-05	2.5258e-06
2	1	0	1	1	267.403	-0.488373	-0.488594	-0.0050498	2	-7.46892e-05	2.4673e-06
2	1	0	1	1	267.47	-0.485034	-0.485256	-0.00496498	2	-7.50225e-05	2.40929e-06
2	1	0	0	1	267.537	-0.481702	-0.481918	-0.00488175	2	-7.53492e-05	2.3526e-06
2	1	0	1	1	267.603	-0.478373	-0.478604	-0.00480039	2	-7.56704e-05	2.29749e-06
2	1	0	0	1	267.67	-0.475044	-0.475259	-0.00472098	2	-7.59863e-05	2.24369e-06
2	1	0	1	1	267.737	-0.471713	-0.471931	-0.0046437	2	-7.6297e-05	2.19151e-06
2	1	0	1	1	267.803	-0.468374	-0.468589	-0.0045664	2	-7.66034e-05	2.13976e-06
2	1	0	0	1	267.87	-0.465043	-0.465239	-0.0044909	2	-7.69039e-05	2.08934e-06
2	1	0	1	1	267.937	-0.461713	-0.461917	-0.00441762	2	-7.71994e-05	2.04057e-06
2	1	0	0	1	268.003	-0.458384	-0.458579	-0.00434549	2	-7.749e-05	1.99275e-06
2	1	0	1	1	268.07	-0.455052	-0.455224	-0.0042742	2	-7.77759e-05	1.94572e-06
2	1	0	1	1	268.137	-0.451714	-0.451892	-0.00420548	2	-7.8058e-05	1.90042e-06
2	1	0	0	1	268.203	-0.448384	-0.448567	-0.00413774	2	-7.83346e-05	1.85606e-06
2	1	0	1	1	268.27	-0.445053	-0.445257	-0.00407208	2	-7.86069e-05	1.81312e-06
2	1	0	0	1	268.336	-0.441724	-0.441943	-0.00400561	2	-7.88747e-05	1.77025e-06
2	1	0	0	1	268.403	-0.438388	-0.438581	-0.00394097	2	-7.91386e-05	1.72843e-06
2	1	0	1	1	268.47	-0.435053	-0.435242	-0.00387696	2	-7.93981e-05	1.68742e-06
2	1	0	0	1	268.536	-0.431723	-0.431913	-0.00381477	2	-7.96532e-05	1.64765e-06
2	1	0	1	1	268.603	-0.428392	-0.428598	-0.00375455	2	-7.99041e-05	1.60919e-06
2	1	0	0	1	268.67	-0.425064	-0.425267	-0.00369483	2	-8.0151e-05	1.57129e-06
2	1	0	0	1	268.736	-0.421728	-0.421949	-0.00363464	2	-8.03943e-05	1.53363e-06
2	1	0	1	1	268.803	-0.418393	-0.41861	-0.00357793	2	-8.06337e-05	1.49776e-06
2	1	0	0	1	268.87	-0.415064	-0.415265	-0.0035207	2	-8.08689e-05	1.46202e-06
2	1	0	1	1	268.936	-0.411732	-0.411924	-0.00346457	2	-8.11004e-05	1.42714e-06
2	1	0	0	1	269.003	-0.408403	-0.408605	-0.00341025	2	-8.13282e-05	1.39344e-06
2	1	0	0	1	269.069	-0.405069	-0.405271	-0.00335539	2	-8.15527e-05	1.35984e-06
2	1	0	1	1	269.136	-0.401733	-0.401953	-0.0033025	2	-8.17736e-05	1.32745e-06
2	1	0	0	1	269.203	-0.398404	-0.398622	-0.00325043	2	-8.19907e-05	1.29569e-06
2	1	0	1	1	269.269	-0.395073	-0.395306	-0.00319907	2	-8.22044e-05	1.26461e-06
2	1	0	0	1	269.336	-0.391743	-0.391966	-0.00314788	2	-8.24146e-05	1.23386e-06
2	1	0	0	1	269.403	-0.388409	-0.388623	-0.00309782	2	-8.26217e-05	1.20388e-06
2	1	0	1	1	269.469	-0.385072	-0.385308	-0.00304856	2	-8.28256e-05	1.17464e-06
2	1	0	0	1	269.536	-0.381744	-0.381963	-0.00299895	2	-8.30259e-05	1.14549e-06
2	1	0	1	1	269.603	-0.378414	-0.378602	-0.00295147	2	-8.32229e-05	1.11743e-06
2	1	0	0	1	269.669	-0.375083	-0.375267	-0.00290439	2	-8.34168e-05	1.08992e-06
2	1	0	0	1	269.736	-0.371744	-0.371942	-0.00285722	2	-8.36081e-05	1.06272e-06
2	1	0	1	1	269.803	-0.368412	-0.368593	-0.00281168	2	-8.37958e-05	1.03636e-06
2	1	0	0	1	269.869	-0.365083	-0.36528	-0.00276699	2	-8.39804e-05	1.01073e-06
2	1	0	1	1	269.936	-0.361755	-0.361945	-0.00272217	2	-8.41621e-05	9.85274e-07
2	1	0	0	1	270.002	-0.358422	-0.358628	-0.00267724	2	-8.43408e-05	9.60134e-07
2	1	0	0	1	270.069	-0.355084	-0.355281	-0.00263412	2	-8.45171e-05	9.35851e-07
2	1	0	1	1	270.136	-0.351753	-0.351966	-0.00259031	2	-8.46899e-05	9.11701e-07
2	1	0	0	1	270.202	-0.348423	-0.348625	-0.00254696	2	-8.48599e-05	8.87935e-07
2	1	0	1	1	270.269	-0.345094	-0.3453	-0.00250466	2	-8.5027e-05	8.6486e-07
2	1	0	1	1	270.336	-0.341758	-0.341978	-0.00246253	2	-8.51915e-05	8.42129e-07
2	1	0	0	1	270.402	-0.338423	-0.338611	-0.00241943	2	-8.53532e-05	8.19246e-07
2	1	0	1	1	270.469	-0.335094	-0.335269	-0.00237878	2	-8.55119e-05	7.97533e-07
2	1	0	0	1	270.536	-0.331763	-0.331938	-0.00233692	2	-8.56678e-05	7.75713e-07
2	1	0	1	1	270.602	-0.328434	-0.328611	-0.00229582	2	-8.5821e-05	7.54432e-07
2	1	0	1	1	270.669	-0.325097	-0.32528	-0.00225523	2	-8.59716e-05	7.33581e-07
2	1	0	0	1	270.736	-0.321763	-0.321934	-0.00221483	2	-8.61196e-05	7.13028e-07
2	1	0	1	1	270.802	-0.318434	-0.318632	-0.00217564	2	-8.62647e-05	6.9323e-07
2	1	0	0	1	270.869	-0.315102	-0.315298	-0.00213499	2	-8.64071e-05	6.73158e-07
2	1	0	1	1	270.935	-0.311774	-0.311976	-0.00209576	2	-8.65469e-05	6.53828e-07
2	1	0	1	1	271.002	-0.308438	-0.308633	-0.00205646	2	-8.66843e-05	6.34694e-07
2	1	0	0	1	271.069	-0.305103	-0.3053	-0.0020172	2	-8.6819e-05	6.15852e-07
2	1	0	1	1	271.135	-0.301774	-0.301961	-0.00197922	2	-8.6951e-05	5.97646e-07
2	1	0	0	1	271.202	-0.298443	-0.29863	-0.00194015	2	-8.70804e-05	5.79385e-07
2	1	0	1	1	271.269	-0.295113	-0.295281	-0.00190107	2	-8.72072e-05	5.61351e-07
2	1	0	1	1	271.335	-0.291779	-0.291959	-0.00186413	2	-8.73317e-05	5.44249e-07
2	1	0	0	1	271.402	-0.288442	-0.288607	-0.00182646	2	-8.74537e-05	5.27129e-07
2	1	0	1	1	271.469	-0.285114	-0.285276	-0.00178882	2	-8.7573e-05	5.10306e-07
2	1	0	0	1	271.535	-0.281783	-0.28194	-0.00175253	2	-8.76898e-05	4.9411e-07
2	1	0	1	1	271.602	-0.278453	-0.27862	-0.00171617	2	-8.78042e-05	4.78157e-07
2	1	0	1	1	271.669	-0.275114	-0.27529	-0.00168101	2	-8.79166e-05	4.62767e-07
2	1	0	0	1	271.735	-0.271782	-0.271945	-0.00164474	2	-8.80263e-05	4.47277e-07
2	1	0	1	1	271.802	-0.268453	-0.268611	-0.00161025	2	-8.81336e-05	4.3253e-07
2	1	0	0	1	271.868	-0.265124	-0.265315	-0.00157562	2	-8.82386e-05	4.18035e-07
2	1	0	1	1	271.935	-0.261793	-0.261961	-0.00154142	2	-8.83413e-05	4.03793e-07
2	1	0	1	1	272.002	-0.258454	-0.258634	-0.00150868	2	-8.8442e-05	3.90197e-07
2	1	0	0	1	272.068	-0.255123	-0.255293	-0.00147712	2	-8.85404e-05	3.77097e-07
2	1	0	1	1	272.135	-0.251793	-0.251973	-0.00144508	2	-8.86366e-05	3.64122e-07
2	1	0	0	1	272.202	-0.248464	-0.248663	-0.00141535	2	-8.87308e-05	3.51944e-07
2	1	0	1	1	272.268	-0.245132	-0.245336	-0.00138562	2	-8.8823e-05	3.39942e-07
2	1	0	1	1	272.335	-0.241794	-0.241984	-0.00135636	2	-8.89135e-05	3.28217e-07
2	1	0	0	1	272.402	-0.238463	-0.238649	-0.0013295	2	-8.90018e-05	3.17285e-07
2	1	0	1	1	272.468	-0.235133	-0.23532	-0.00130396	2	-8.90884e-05	3.06849e-07
2	1	0	0	1	272.535	-0.231804	-0.232018	-0.00127974	2	-8.91734e-05	2.96922e-07
2	1	0	0	1	272.601	-0.228468	-0.228671	-0.00125592	2	-8.92569e-05	2.87192e-07
2	1	0	1	1	272.668	-0.225133	-0.22533	-0.00123324	2	-8.93388e-05	2.77886e-07
2	1	0	0	1	272.735	-0.221803	-0.221989	-0.00121227	2	-8.94192e-05	2.69111e-07
2	1	0	1	1	272.801	-0.218472	-0.218658	-0.00119328	2	-8.94982e-05	2.60919e-07
2	1	0	0	1	272.868	-0.215144	-0.215326	-0.001175	2	-8.9576e-05	2.53009e-07
2	1	0	0	1	272.935	-0.211808	-0.211997	-0.00115745	2	-8.96528e-05	2.45376e-07
2	1	0	1	1	273.001	-0.208473	-0.208639	-0.00114097	2	-8.97283e-05	2.38051e-07
2	1	0	0	1	273.068	-0.205144	-0.205312	-0.00112611	2	-8.98028e-05	2.31204e-07
2	1	0	1	1	273.135	-0.201812	-0.201964	-0.00111213	2	-8.98762e-05	2.2461e-07
2	1	0	0	1	273.201	-0.198483	-0.198651	-0.001099	2	-8.99488e-05	2.18316e-07
2	1	0	0	1	273.268	-0.195149	-0.195325	-0.00108706	2	-9.00207e-05	2.1233e-07
2	1	0	1	1	273.335	-0.191813	-0.19199	-0.0010747	2	-9.00917e-05	2.06331e-07
2	1	0	0	1	273.401	-0.188484	-0.188675	-0.00106357	2	-9.01619e-05	2.00669e-07
2	1	0	1	1	273.468	-0.185153	-0.185341	-0.00105238	2	-9.02313e-05	1.9505e-07
2	1	0	0	1	273.534	-0.181823	-0.181994	-0.00104208	2	-9.03e-05	1.89653e-07
2	1	0	0	1	273.601	-0.178489	-0.178675	-0.00103144	2	-9.0368e-05	1.84293e-07
2	1	0	1	1	273.668	-0.175152	-0.175327	-0.0010218	2	-9.04355e-05	1.79148e-07
2	1	0	0	1	273.734	-0.171824	-0.172	-0.00101204	2	-9.05022e-05	1.74071e-07
2	1	0	1	1	273.801	-0.168494	-0.16867	-0.00100288	2	-9.05682e-05	1.69156e-07
2	1	0	0	1	273.868	-0.165163	-0.165321	-0.000993201	2	-9.06336e-05	1.64197e-07
2	1	0	0	1	273.934	-0.161824	-0.161977	-0.000984042	2	-9.06986e-05	1.59392e-07
2	1	0	1	1	274.001	-0.158492	-0.158651	-0.000974927	2	-9.07628e-05	1.54674e-07
2	1	0	0	1	274.068	-0.155163	-0.155308	-0.000966094	2	-9.08264e-05	1.50042e-07
2	1	0	1	1	274.134	-0.151835	-0.151991	-0.000958019	2	-9.08894e-05	1.4561e-07
2	1	0	0	1	274.201	-0.148503	-0.148653	-0.000949831	2	-9.09519e-05	1.41196e-07
2	1	0	0	1	274.268	-0.145164	-0.145318	-0.000940641	2	-9.1014e-05	1.36692e-07
2	1	0	1	1	274.334	-0.141833	-0.142008	-0.000932899	2	-9.10753e-05	1.32479e-07
2	1	0	0	1	274.401	-0.138503	-0.138661	-0.000924596	2	-9.11361e-05	1.28206e-07
2	1	0	1	1	274.467	-0.135174	-0.135328	-0.000916093	2	-9.11964e-05	1.23973e-07
2	1	0	0	1	274.534	-0.131842	-0.132003	-0.000908685	2	-9.12561e-05	1.19949e-07
2	1	0	0	1	274.601	-0.128503	-0.128675	-0.000900393	2	-9.13155e-05	1.15858e-07
2	1	0	1	1	274.667	-0.125174	-0.125325	-0.000891733	2	-9.13741e-05	1.11756e-07
2	1	0	0	1	274.734	-0.121843	-0.121998	-0.00088404	2	-9.14322e-05	1.07851e-07
2	1	0	1	1	274.801	-0.118514	-0.118674	-0.00087618	2	-9.14898e-05	1.03979e-07
2	1	0	1	1	274.867	-0.115177	-0.115323	-0.000868078	2	-9.15469e-05	1.00109e-07
2	1	0	0	1	274.934	-0.111843	-0.111965	-0.000860571	2	-9.16035e-05	9.63539e-08
2	1	0	1	1	275.001	-0.108514	-0.108671	-0.000852767	2	-9.16595e-05	9.26712e-08
2	1	0	0	1	275.067	-0.105182	-0.105332	-0.000845341	2	-9.1715e-05	8.90415e-08
2	1	0	1	1	275.134	-0.101854	-0.102005	-0.000837442	2	-9.177e-05	8.54237e-08
2	1	0	1	1	275.2	-0.0985182	-0.0986754	-0.000830112	2	-9.18246e-05	8.19117e-08
2	1	0	0	1	275.267	-0.0951828	-0.0953445	-0.000822288	2	-9.18786e-05	7.84007e-08
2	1	0	1	1	275.334	-0.0918541	-0.0920046	-0.000814451	2	-9.19321e-05	7.49333e-08
2	1	0	0	1	275.4	-0.088522	-0.0886799	-0.000807266	2	-9.1985e-05	7.15883e-08
2	1	0	1	1	275.467	-0.0851933	-0.0853588	-0.000799706	2	-9.20375e-05	6.82619e-08
2	1	0	1	1	275.534	-0.081859	-0.0820153	-0.000792378	2	-9.20896e-05	6.49871e-08
2	1	0	0	1	275.6	-0.0785225	-0.0786856	-0.000785065	2	-9.21411e-05	6.17733e-08
2	1	0	1	1	275.667	-0.0751938	-0.0753771	-0.000777773	2	-9.21921e-05	5.86263e-08
2	1	0	0	1	275.734	-0.0718628	-0.072033	-0.000769559	2	-9.22426e-05	5.54337e-08
2	1	0	1	1	275.8	-0.068533	-0.068685	-0.000762511	2	-9.22926e-05	5.2373e-08
2	1	0	1	1	275.867	-0.0651943	-0.0653523	-0.000755297	2	-9.23422e-05	4.93604e-08
2	1	0	0	1	275.934	-0.0618622	-0.062023	-0.000748729	2	-9.23913e-05	4.64384e-08
2	1	0	1	1	276	-0.0585335	-0.058695	-0.000740956	2	-9.24398e-05	4.34904e-08
2	1	0	0	1	276.067	-0.0552036	-0.0553743	-0.000733741	2	-9.24879e-05	4.06304e-08
2	1	0	1	1	276.133	-0.0518727	-0.0520615	-0.000726416	2	-9.25355e-05	3.78183e-08
2	1	0	1	1	276.2	-0.0485339	-0.0487098	-0.000719224	2	-9.25827e-05	3.50333e-08
2	1	0	0	1	276.267	-0.045203	-0.0453725	-0.000712824	2	-9.26294e-05	3.23426e-08
2	1	0	1	1	276.333	-0.0418732	-0.0420413	-0.000704797	2	-9.26755e-05	2.96306e-08
2	1	0	0	1	276.4	-0.0385444	-0.0386965	-0.000697811	2	-9.27212e-05	2.70028e-08
2	1	0	1	1	276.467	-0.0352124	-0.0353712	-0.000691058	2	-9.27664e-05	2.44436e-08
2	1	0	1	1	276.533	-0.0318736	-0.0320322	-0.000683866	2	-9.28113e-05	2.19057e-08
2	1	0	0	1	276.6	-0.0285427	-0.0286988	-0.000676882	2	-9.28555e-05	1.94257e-08
2	1	0	1	1	276.667	-0.0252128	-0.0253553	-0.000670413	2	-9.28994e-05	1.69985e-08
2	1	0	0	1	276.733	-0.0218841	-0.0220316	-0.00066345	2	-9.29427e-05	1.46169e-08
2	1	0	0	1	276.8	-0.0185476	-0.0187103	-0.000656471	2	-9.29857e-05	1.22827e-08
2	1	0	1	1	276.867	-0.0152133	-0.0153732	-0.000649967	2	-9.30282e-05	9.99207e-09
2	1	0	0	1	276.933	-0.0118835	-0.0120545	-0.000642636	2	-9.30702e-05	7.74666e-09
2	1	0	1	1	277	-0.00855252	-0.00872831	-0.000635788	2	-9.31118e-05	5.54936e-09
2	1	0	0	1	277.066	-0.00522379	-0.00539268	-0.000629191	2	-9.31529e-05	3.39303e-09
2	1	0	0	1	277.133	-0.0018884	-0.00205442	-0.000622528	2	-9.31936e-05	1.27893e-09
2	1	0	1	1	277.2	0.00145313	0.00129418	-0.00061518	2	-9.32338e-05	7.96152e-10
2	1	0	0	1	277.266	0.00477573	0.00463878	-0.000608493	2	-9.32735e-05	2.82266e-09
2	1	0	1	1	277.333	0.00810779	0.00797742	-0.00060189	2	-9.33128e-05	4.80153e-09
2	1	0	0	1	277.4	0.0114365	0.0113155	-0.000595145	2	-9.33516e-05	6.73435e-09
2	1	0	0	1	277.466	0.0147719	0.0146701	-0.000588174	2	-9.339e-05	8.62859e-09
2	1	0	1	1	277.533	0.0181073	0.0179878	-0.000581814	2	-9.3428e-05	1.04656e-08
2	1	0	0	1	277.6	0.021436	0.0213252	-0.000575275	2	-9.34655e-05	1.22679e-08
2	1	0	1	1	277.666	0.024767	0.024638	-0.000568111	2	-9.35025e-05	1.39971e-08
2	1	0	0	1	277.733	0.0280968	0.0279668	-0.000561852	2	-9.35391e-05	1.57132e-08
2	1	0	0	1	277.799	0.0314311	0.0313112	-0.000554495	2	-9.35753e-05	1.73619e-08
2	1	0	1	1	277.866	0.0347676	0.0346553	-0.000547381	2	-9.3611e-05	1.89696e-08
2	1	0	0	1	277.933	0.0380963	0.0379701	-0.00054151	2	-9.36463e-05	2.05612e-08
2	1	0	1	1	277.999	0.0414262	0.0412898	-0.000534608	2	-9.3681e-05	2.20739e-08
2	1	0	0	1	278.066	0.0447571	0.0446387	-0.0005263	2	-9.37153e-05	2.34933e-08
2	1	0	0	1	278.133	0.0480959	0.047995	-0.000520318	2	-9.37493e-05	2.49727e-08
2	1	0	1	1	278.199	0.0514279	0.0513384	-0.000513171	2	-9.37826e-05	2.63454e-08
2	1	0	0	1	278.266	0.0547567	0.0546621	-0.000506828	2	-9.38156e-05	2.77043e-08
2	1	0	1	1	278.333	0.0580865	0.0580071	-0.000500622	2	-9.38481e-05	2.90396e-08
2	1	0	0	1	278.399	0.0614174	0.0613259	-0.000494351	2	-9.38802e-05	3.03165e-08
2	1	0	0	1	278.483	0.0655873	0.0654948	-0.000486152	2	-9.39202e-05	3.18404e-08
2	1	0	1	1	278.566	0.0697476	0.0696214	-0.000477592	2	-9.39596e-05	3.32506e-08
2	1	0	1	1	278.633	0.0730863	0.0729572	-0.000470745	2	-9.39904e-05	3.43443e-08
2	1	0	0	1	278.699	0.0764173	0.0763031	-0.000463478	2	-9.40207e-05	3.53648e-08
2	1	0	1	1	278.766	0.0797471	0.0796275	-0.00045715	2	-9.40505e-05	3.64017e-08
2	1	0	0	1	278.832	0.0830758	0.0829521	-0.000450836	2	-9.40798e-05	3.73978e-08
2	1	0	0	1	278.899	0.0864123	0.0862607	-0.0004444	2	-9.41088e-05	3.83342e-08
2	1	0	1	1	278.966	0.0897466	0.0896292	-0.0004371	2	-9.41373e-05	3.91769e-08
2	1	0	0	1	279.032	0.0930765	0.0929411	-0.000430531	2	-9.41654e-05	4.00141e-08
2	1	0	1	1	279.099	0.0964074	0.096273	-0.000423891	2	-9.41929e-05	4.08093e-08
2	1	0	0	1	279.149	0.0989065	0.0987996	-0.000418272	2	-9.42134e-05	4.13251e-08
2	0	0	1	1	279.169	0.0999061	0.099765	-0.000418958	2	-9.42217e-05	4.17973e-08
2	0	0	1	1	279.206	0.0980701	0.0979238	-0.000555017	2	-9.42421e-05	5.43494e-08
2	0	0	0	1	279.273	0.0947403	0.0945753	-0.000610032	2	-9.42819e-05	5.7694e-08
2	0	0	1	1	279.339	0.0914093	0.0912583	-0.000647896	2	-9.43248e-05	5.91258e-08
2	0	0	0	1	279.406	0.0880806	0.0879144	-0.000681487	2	-9.43699e-05	5.99125e-08
2	0	0	0	1	279.473	0.0847441	0.0845909	-0.000711526	2	-9.44173e-05	6.01886e-08
2	0	0	1	1	279.539	0.0814098	0.0812677	-0.000740247	2	-9.44666e-05	6.01581e-08
2	0	0	0	1	279.606	0.0780811	0.0779368	-0.000767594	2	-9.45177e-05	5.98238e-08
2	0	0	1	1	279.673	0.074749	0.0745991	-0.000794045	2	-9.45706e-05	5.92351e-08
2	0	0	0	1	279.739	0.0714203	0.0712636	-0.00081865	2	-9.46252e-05	5.83399e-08
2	0	0	0	1	279.806	0.0680849	0.0679368	-0.000842739	2	-9.46815e-05	5.7253e-08
2	0	0	1	1	279.873	0.0647495	0.0646138	-0.000865359	2	-9.47394e-05	5.59141e-08
2	0	0	0	1	279.939	0.0614208	0.0612951	-0.000887804	2	-9.47987e-05	5.4418e-08
2	0	0	1	1	280.006	0.0580898	0.057962	-0.000908727	2	-9.48594e-05	5.26716e-08
2	0	0	0	1	280.072	0.05476	0.0546174	-0.000930038	2	-9.49215e-05	5.07963e-08
2	0	0	0	1	280.139	0.0514257	0.0512902	-0.000949461	2	-9.49851e-05	4.8698e-08
2	0	0	1	1	280.206	0.0480892	0.0479442	-0.000968287	2	-9.505e-05	4.64237e-08
2	0	0	0	1	280.289	0.0439303	0.0437942	-0.000990007	2	-9.51331e-05	4.33566e-08
2	0	0	0	1	280.372	0.039759	0.0396179	-0.00100978	2	-9.52179e-05	4.00054e-08
2	0	0	1	1	280.439	0.0364303	0.0363098	-0.00102718	2	-9.52868e-05	3.72966e-08
2	0	0	0	1	280.506	0.0331005	0.0329665	-0.0010449	2	-9.53569e-05	3.44467e-08
2	0	0	1	1	280.572	0.0297695	0.0296497	-0.00106178	2	-9.54281e-05	3.14816e-08
2	0	0	1	1	280.639	0.0264308	0.0262963	-0.00107804	2	-9.55006e-05	2.83485e-08
2	0	0	0	1	280.706	0.0230987	0.0229724	-0.00109407	2	-9.5574e-05	2.51335e-08
2	0	0	1	1	280.772	0.01977	0.0196451	-0.00110983	2	-9.56485e-05	2.18027e-08
2	0	0	0	1	280.839	0.0164413	0.0163272	-0.00112503	2	-9.57239e-05	1.83686e-08
2	0	0	1	1	280.905	0.0131092	0.0129928	-0.0011407	2	-9.58005e-05	1.48208e-08
2	0	0	1	1	280.972	0.00977049	0.00963478	-0.00115548	2	-9.58782e-05	1.11328e-08
2	0	0	0	1	281.039	0.00643954	0.00630037	-0.00116998	2	-9.59567e-05	7.3713e-09
2	0	0	1	1	281.105	0.0031097	0.00299414	-0.00118469	2	-9.60362e-05	3.54711e-09
2	0	0	0	1	281.172	-0.000219032	-0.000379134	-0.00119875	2	-9.61166e-05	4.54487e-10
2	0	0	1	1	281.239	-0.00355109	-0.00371784	-0.0012121	2	-9.6198e-05	4.5064e-09
2	0	0	1	1	281.305	-0.00688982	-0.00704292	-0.00122592	2	-9.62804e-05	8.63406e-09
2	0	0	0	1	281.372	-0.0102197	-0.0103837	-0.00123942	2	-9.63636e-05	1.28697e-08
2	0	0	1	1	281.439	-0.0135506	-0.0137349	-0.00125245	2	-9.64476e-05	1.72022e-08
2	0	0	0	1	281.505	-0.0168793	-0.0170394	-0.00126549	2	-9.65325e-05	2.15632e-08
2	0	0	0	1	281.572	-0.0202159	-0.0203735	-0.00127793	2	-9.66184e-05	2.60359e-08
2	0	0	1	1	281.639	-0.0235501	-0.0237046	-0.0012905	2	-9.67051e-05	3.05907e-08
2	0	0	0	1	281.705	-0.0268789	-0.027013	-0.00130268	2	-9.67925e-05	3.51892e-08
2	0	0	1	1	281.772	-0.0302109	-0.0303598	-0.00131538	2	-9.68807e-05	3.99347e-08
2	0	0	0	1	281.838	-0.0335397	-0.033686	-0.00132738	2	-9.69698e-05	4.47141e-08
2	0	0	0	1	281.905	-0.0368751	-0.0370127	-0.00133907	2	-9.70598e-05	4.95626e-08
2	0	0	1	1	281.972	-0.0402105	-0.0403707	-0.00135193	2	-9.71506e-05	5.45785e-08
2	0	0	0	1	282.038	-0.0435392	-0.0437248	-0.0013636	2	-9.7242e-05	5.96233e-08
2	0	0	1	1	282.105	-0.0468712	-0.0470618	-0.00137487	2	-9.73343e-05	6.4704e-08
2	0	0	0	1	282.172	-0.0502	-0.0503769	-0.00138647	2	-9.74273e-05	6.98459e-08
2	0	0	0	1	282.238	-0.0535343	-0.0537229	-0.00139768	2	-9.75212e-05	7.50876e-08
2	0	0	1	1	282.305	-0.0568708	-0.0570496	-0.00140864	2	-9.76158e-05	8.03625e-08
2	0	0	0	1	282.372	-0.0601995	-0.0603777	-0.00141953	2	-9.77111e-05	8.57079e-08
2	0	0	1	1	282.438	-0.0635305	-0.063704	-0.00143013	2	-9.7807e-05	9.11048e-08
2	0	0	0	1	282.505	-0.0668603	-0.0670312	-0.00144123	2	-9.79037e-05	9.66077e-08
2	0	0	0	1	282.572	-0.070199	-0.0703457	-0.00145193	2	-9.80013e-05	1.02137e-07
2	0	0	1	1	282.638	-0.0735311	-0.0737106	-0.00146327	2	-9.80995e-05	1.07858e-07
2	0	0	0	1	282.705	-0.0768598	-0.0770407	-0.0014738	2	-9.81983e-05	1.13542e-07
2	0	0	1	1	282.771	-0.0801897	-0.0803623	-0.00148396	2	-9.82979e-05	1.19254e-07
2	0	0	0	1	282.838	-0.0835206	-0.0836992	-0.00149407	2	-9.83981e-05	1.25053e-07
2	0	0	0	1	282.905	-0.0868593	-0.0870082	-0.00150412	2	-9.84993e-05	1.30871e-07
2	0	0	1	1	282.971	-0.0901903	-0.0903285	-0.00151483	2	-9.86009e-05	1.36832e-07
2	0	0	0	1	283.038	-0.0935201	-0.0936603	-0.00152545	2	-9.87031e-05	1.42874e-07
2	0	0	1	1	283.105	-0.0968489	-0.0970022	-0.00153571	2	-9.88061e-05	1.48968e-07
2	0	0	0	1	283.171	-0.100181	-0.100342	-0.00154576	2	-9.89098e-05	1.55104e-07
2	0	0	0	1	283.238	-0.10352	-0.103663	-0.00155656	2	-9.90145e-05	1.61358e-07
2	0	0	1	1	283.305	-0.106851	-0.10701	-0.00156631	2	-9.91195e-05	1.6761e-07
2	0	0	0	1	283.371	-0.11018	-0.110344	-0.00157616	2	-9.92252e-05	1.7392e-07
2	0	0	1	1	283.438	-0.113509	-0.113669	-0.00158629	2	-9.93316e-05	1.80313e-07
2	0	0	1	1	283.504	-0.116846	-0.117005	-0.0015964	2	-9.94388e-05	1.86787e-07
2	0	0	0	1	283.571	-0.12018	-0.120338	-0.00160641	2	-9.95466e-05	1.93311e-07
2	0	0	1	1	283.638	-0.12351	-0.123652	-0.00161681	2	-9.9655e-05	1.99923e-07
2	0	0	0	1	283.704	-0.126841	-0.127013	-0.00162732	2	-9.97641e-05	2.0669e-07
2	0	0	1	1	283.771	-0.130169	-0.130351	-0.00163692	2	-9.98738e-05	2.13374e-07
2	0	0	1	1	283.838	-0.133505	-0.133679	-0.00164677	2	-9.99844e-05	2.20139e-07
2	0	0	0	1	283.904	-0.13684	-0.137017	-0.00165703	2	-0.000100096	2.2704e-07
2	0	0	1	1	283.971	-0.140169	-0.140362	-0.00166721	2	-0.000100207	2.34013e-07
2	0	0	0	1	284.038	-0.143501	-0.143683	-0.0016768	2	-0.00010032	2.40927e-07
2	0	0	1	1	284.104	-0.14683	-0.147024	-0.00168773	2	-0.000100433	2.48138e-07
2	0	0	1	1	284.171	-0.150165	-0.150336	-0.0016979	2	-0.000100547	2.55256e-07
2	0	0	0	1	284.238	-0.153501	-0.153663	-0.00170758	2	-0.000100661	2.62392e-07
2	0	0	1	1	284.304	-0.156829	-0.156997	-0.00171836	2	-0.000100777	2.69778e-07
2	0	0	0	1	284.371	-0.16016	-0.160334	-0.00172917	2	-0.000100892	2.77245e-07
2	0	0	1	1	284.437	-0.16349	-0.163679	-0.00174015	2	-0.000101009	2.84826e-07
2	0	0	1	1	284.504	-0.166824	-0.167018	-0.00175146	2	-0.000101126	2.92526e-07
2	0	0	0	1	284.571	-0.170161	-0.170366	-0.00176255	2	-0.000101245	3.00278e-07
2	0	0	1	1	284.637	-0.17349	-0.173688	-0.00177364	2	-0.000101364	3.08059e-07
2	0	0	0	1	284.704	-0.176819	-0.177019	-0.00178553	2	-0.000101483	3.16073e-07
2	0	0	1	1	284.771	-0.18015	-0.18035	-0.00179834	2	-0.000101604	3.2433e-07
2	0	0	1	1	284.837	-0.183489	-0.18369	-0.00181099	2	-0.000101725	3.32661e-07
2	0	0	0	1	284.904	-0.186821	-0.187007	-0.00182363	2	-0.000101847	3.4103e-07
2	0	0	1	1	284.971	-0.19015	-0.190337	-0.00183717	2	-0.00010197	3.49681e-07
2	0	0	0	1	285.037	-0.19348	-0.19366	-0.00185138	2	-0.000102094	3.58538e-07
2	0	0	1	1	285.104	-0.196811	-0.196986	-0.00186613	2	-0.000102219	3.676e-07
2	0	0	1	1	285.171	-0.20015	-0.200331	-0.00188242	2	-0.000102345	3.77105e-07
2	0	0	0	1	285.237	-0.20348	-0.203656	-0.00189875	2	-0.000102472	3.86691e-07
2	0	0	1	1	285.304	-0.20681	-0.206993	-0.00191584	2	-0.0001026	3.96566e-07
2	0	0	0	1	285.37	-0.210139	-0.210318	-0.00193505	2	-0.000102729	4.06976e-07
2	0	0	1	1	285.437	-0.213471	-0.213679	-0.00195527	2	-0.00010286	4.178e-07
2	0	0	1	1	285.504	-0.21681	-0.217005	-0.00197574	2	-0.000102992	4.28745e-07
2	0	0	0	1	285.57	-0.22014	-0.220319	-0.00199828	2	-0.000103126	4.40259e-07
2	0	0	1	1	285.637	-0.223471	-0.22368	-0.00202243	2	-0.000103261	4.52377e-07
2	0	0	0	1	285.704	-0.226799	-0.227011	-0.0020475	2	-0.000103397	4.64806e-07
2	0	0	0	1	285.77	-0.230136	-0.230347	-0.00207425	2	-0.000103536	4.77797e-07
2	0	0	1	1	285.837	-0.23347	-0.233687	-0.00210318	2	-0.000103676	4.91485e-07
2	0	0	0	1	285.904	-0.236799	-0.236995	-0.0021337	2	-0.000103819	5.05678e-07
2	0	0	1	1	285.97	-0.240131	-0.24031	-0.00216548	2	-0.000103963	5.20386e-07
2	0	0	0	1	286.037	-0.24346	-0.243656	-0.00219972	2	-0.000104109	5.35974e-07
2	0	0	0	1	286.103	-0.246795	-0.247002	-0.00223496	2	-0.000104258	5.52038e-07
2	0	0	1	1	286.17	-0.25013	-0.250327	-0.00227144	2	-0.00010441	5.68602e-07
2	0	0	0	1	286.237	-0.253459	-0.253666	-0.00230949	2	-0.000104563	5.85838e-07
2	0	0	1	1	286.303	-0.256791	-0.256969	-0.00234854	2	-0.000104719	6.03501e-07
2	0	0	0	1	286.37	-0.26012	-0.260293	-0.00238994	2	-0.000104878	6.22084e-07
2	0	0	0	1	286.437	-0.263454	-0.263636	-0.00243193	2	-0.00010504	6.41146e-07
2	0	0	1	1	286.503	-0.266791	-0.266985	-0.00247617	2	-0.000105205	6.611e-07
2	0	0	0	1	286.57	-0.270119	-0.270306	-0.00252022	2	-0.000105373	6.81232e-07
2	0	0	1	1	286.637	-0.27345	-0.273633	-0.00256643	2	-0.000105543	7.02259e-07
2	0	0	0	1	286.703	-0.27678	-0.276939	-0.0026117	2	-0.000105717	7.23283e-07
2	0	0	0	1	286.77	-0.280119	-0.280289	-0.00266038	2	-0.000105894	7.45675e-07
2	0	0	1	1	286.837	-0.283451	-0.283606	-0.00270864	2	-0.000106074	7.68187e-07
2	0	0	0	1	286.903	-0.28678	-0.286941	-0.00275873	2	-0.000106257	7.9159e-07
2	0	0	1	1	286.97	-0.29011	-0.290294	-0.00280885	2	-0.000106443	8.15393e-07
2	0	0	0	1	287.036	-0.293441	-0.293621	-0.00285836	2	-0.000106633	8.39272e-07
2	0	0	0	1	287.103	-0.296779	-0.296961	-0.00291093	2	-0.000106827	8.64431e-07
2	0	0	1	1	287.17	-0.300111	-0.300312	-0.00296259	2	-0.000107024	8.89702e-07
2	0	0	0	1	287.236	-0.30344	-0.303649	-0.00301445	2	-0.000107224	9.15334e-07
2	0	0	1	1	287.303	-0.306769	-0.306965	-0.00306772	2	-0.000107428	9.41683e-07
2	0	0	0	1	287.37	-0.310101	-0.310307	-0.0031203	2	-0.000107635	9.68252e-07
2	0	0	0	1	287.436	-0.31344	-0.313653	-0.00317412	2	-0.000107846	9.95573e-07
2	0	0	1	1	287.503	-0.316771	-0.31698	-0.0032285	2	-0.00010806	1.02337e-06
2	0	0	0	1	287.57	-0.3201	-0.320293	-0.00328138	2	-0.000108278	1.051e-06
2	0	0	1	1	287.636	-0.323429	-0.323625	-0.00333589	2	-0.0001085	1.07958e-06
2	0	0	1	1	287.703	-0.326766	-0.326946	-0.00339051	2	-0.000108725	1.10851e-06
2	0	0	0	1	287.77	-0.3301	-0.330305	-0.00344531	2	-0.000108954	1.138e-06
2	0	0	1	1	287.836	-0.33343	-0.333656	-0.00349975	2	-0.000109187	1.16771e-06
2	0	0	0	1	287.903	-0.336761	-0.336963	-0.00355437	2	-0.000109423	1.19769e-06
2	0	0	1	1	287.969	-0.340089	-0.340339	-0.00361075	2	-0.000109663	1.22888e-06
2	0	0	1	1	288.036	-0.343426	-0.343683	-0.00366504	2	-0.000109906	1.25961e-06
2	0	0	0	1	288.103	-0.34676	-0.347007	-0.00371962	2	-0.000110154	1.29073e-06
2	0	0	1	1	288.169	-0.350089	-0.350322	-0.0037761	2	-0.000110404	1.32285e-06
2	0	0	0	1	288.236	-0.353421	-0.35366	-0.00383111	2	-0.000110659	1.35491e-06
2	0	0	1	1	288.303	-0.35675	-0.356982	-0.00388681	2	-0.000110917	1.38752e-06
2	0	0	1	1	288.369	-0.360085	-0.360336	-0.00394263	2	-0.000111179	1.42067e-06
2	0	0	0	1	288.436	-0.363421	-0.363639	-0.00399816	2	-0.000111445	1.45389e-06
2	0	0	1	1	288.503	-0.366749	-0.366966	-0.00405501	2	-0.000111715	1.48805e-06
2	0	0	0	1	288.569	-0.37008	-0.370286	-0.00411115	2	-0.000111988	1.5223e-06
2	0	0	1	1	288.636	-0.37341	-0.373645	-0.00416813	2	-0.000112264	1.5574e-06
2	0	0	1	1	288.702	-0.376744	-0.376979	-0.00422468	2	-0.000112545	1.59262e-06
2	0	0	0	1	288.769	-0.380081	-0.380316	-0.00428173	2	-0.00011283	1.62841e-06
2	0	0	1	1	288.836	-0.38341	-0.383665	-0.00434044	2	-0.000113119	1.66527e-06
2	0	0	0	1	288.902	-0.386739	-0.386994	-0.00439828	2	-0.000113411	1.70211e-06
2	0	0	1	1	288.969	-0.39007	-0.390321	-0.00445596	2	-0.000113707	1.73925e-06
2	0	0	1	1	289.036	-0.393409	-0.393673	-0.00451623	2	-0.000114007	1.77792e-06
2	0	0	0	1	289.102	-0.396741	-0.396994	-0.00457572	2	-0.000114311	1.81653e-06
2	0	0	1	1	289.169	-0.40007	-0.400323	-0.00463528	2	-0.000114619	1.85561e-06
2	0	0	0	1	289.236	-0.4034	-0.403634	-0.00469473	2	-0.000114931	1.89496e-06
2	0	0	1	1	289.302	-0.406731	-0.40697	-0.00475577	2	-0.000115247	1.93546e-06
2	0	0	1	1	289.369	-0.410069	-0.410304	-0.00481678	2	-0.000115568	1.97635e-06
2	0	0	0	1	289.436	-0.4134	-0.413636	-0.00487908	2	-0.000115892	2.01816e-06
2	0	0	1	1	289.502	-0.41673	-0.416987	-0.00494192	2	-0.00011622	2.06072e-06
2	0	0	0	1	289.569	-0.420059	-0.420308	-0.00500493	2	-0.000116552	2.10361e-06
2	0	0	1	1	289.635	-0.423391	-0.423653	-0.00506906	2	-0.000116889	2.14752e-06
2	0	0	1	1	289.702	-0.42673	-0.426967	-0.00513149	2	-0.000117231	2.19098e-06
2	0	0	0	1	289.769	-0.43006	-0.430296	-0.00519657	2	-0.000117576	2.23606e-06
2	0	0	1	1	289.835	-0.433391	-0.433616	-0.00526137	2	-0.000117925	2.28141e-06
2	0	0	0	1	289.902	-0.436719	-0.436951	-0.00532946	2	-0.000118279	2.32871e-06
2	0	0	0	1	289.969	-0.440056	-0.440287	-0.00539464	2	-0.000118638	2.37519e-06
2	0	0	1	1	290.035	-0.44339	-0.443603	-0.00546179	2	-0.000119001	2.42287e-06
2	0	0	0	1	290.102	-0.44672	-0.446944	-0.00552888	2	-0.000119368	2.4711e-06
2	0	0	1	1	290.169	-0.450051	-0.450261	-0.00559847	2	-0.00011974	2.52077e-06
2	0	0	0	1	290.235	-0.45338	-0.453594	-0.005668	2	-0.000120116	2.57098e-06
2	0	0	0	1	290.302	-0.456715	-0.456944	-0.00573949	2	-0.000120498	2.62263e-06
2	0	0	1	1	290.369	-0.46005	-0.460268	-0.00581076	2	-0.000120884	2.6745e-06
2	0	0	0	1	290.435	-0.463379	-0.463611	-0.00588323	2	-0.000121275	2.72753e-06
2	0	0	1	1	290.502	-0.466711	-0.466939	-0.00595716	2	-0.00012167	2.78163e-06
2	0	0	0	1	290.568	-0.47004	-0.470287	-0.00603037	2	-0.000122071	2.836e-06
2	0	0	0	1	290.635	-0.473374	-0.473612	-0.00610495	2	-0.000122476	2.89138e-06
2	0	0	1	1	290.702	-0.476711	-0.476956	-0.00618084	2	-0.000122887	2.94799e-06
2	0	0	0	1	290.768	-0.480039	-0.480293	-0.00625704	2	-0.000123303	3.00521e-06
2	0	0	1	1	290.835	-0.48337	-0.483622	-0.00633102	2	-0.000123723	3.06182e-06
2	0	0	0	1	290.902	-0.4867	-0.486958	-0.00640639	2	-0.000124148	3.11964e-06
2	0	0	0	1	290.968	-0.490034	-0.490267	-0.00648304	2	-0.000124579	3.17842e-06
2	0	0	1	1	291.035	-0.493371	-0.493604	-0.00656149	2	-0.000125016	3.23878e-06
2	0	0	0	1	291.102	-0.4967	-0.496923	-0.00663824	2	-0.000125456	3.2987e-06
2	0	0	1	1	291.168	-0.50003	-0.500268	-0.00671626	2	-0.000125902	3.35993e-06
2	0	0	0	1	291.235	-0.503361	-0.503595	-0.00679498	2	-0.000126353	3.42192e-06
2	0	0	0	1	291.302	-0.506699	-0.506931	-0.00687524	2	-0.000126811	3.48527e-06
2	0	0	1	1	291.368	-0.510031	-0.510279	-0.0069551	2	-0.000127273	3.54904e-06
2	0	0	0	1	291.435	-0.51336	-0.513599	-0.00703469	2	-0.00012774	3.61301e-06
2	0	0	1	1	291.501	-0.516689	-0.516927	-0.00711461	2	-0.000128212	3.67773e-06
2	0	0	0	1	291.568	-0.520021	-0.520258	-0.00719893	2	-0.00012869	3.7453e-06
2	0	0	0	1	291.635	-0.52336	-0.523598	-0.00728119	2	-0.000129175	3.81242e-06
2	0	0	1	1	291.701	-0.526691	-0.526933	-0.00736118	2	-0.000129663	3.87885e-06
2	0	0	0	1	291.768	-0.53002	-0.530254	-0.00744251	2	-0.000130158	3.94642e-06
2	0	0	1	1	291.835	-0.533349	-0.533573	-0.00752547	2	-0.000130657	4.01539e-06
2	0	0	1	1	291.901	-0.536686	-0.536909	-0.00761102	2	-0.000131163	4.08643e-06
2	0	0	0	1	291.968	-0.54002	-0.540228	-0.00769484	2	-0.000131675	4.15697e-06
2	0	0	1	1	292.035	-0.54335	-0.543566	-0.00777928	2	-0.000132191	4.22855e-06
2	0	0	0	1	292.101	-0.546681	-0.546909	-0.00786467	2	-0.000132713	4.30126e-06
2	0	0	1	1	292.168	-0.550009	-0.550232	-0.00795014	2	-0.000133241	4.37442e-06
2	0	0	1	1	292.234	-0.553346	-0.553602	-0.00803914	2	-0.000133776	4.45048e-06
2	0	0	0	1	292.301	-0.55668	-0.556919	-0.00812698	2	-0.000134316	4.52607e-06
2	0	0	1	1	292.368	-0.560009	-0.560234	-0.00821311	2	-0.000134861	4.60127e-06
2	0	0	0	1	292.434	-0.563341	-0.56358	-0.00830213	2	-0.000135412	4.67891e-06
2	0	0	1	1	292.501	-0.56667	-0.566922	-0.00839194	2	-0.000135969	4.75758e-06
2	0	0	1	1	292.568	-0.570005	-0.570237	-0.00847882	2	-0.000136533	4.83493e-06
2	0	0	0	1	292.634	-0.573341	-0.573585	-0.00857077	2	-0.000137103	4.91607e-06
2	0	0	1	1	292.701	-0.576669	-0.576909	-0.00866032	2	-0.000137678	4.99621e-06
2	0	0	0	1	292.768	-0.58	-0.580225	-0.00875254	2	-0.000138259	5.07844e-06
2	0	0	1	1	292.834	-0.58333	-0.583561	-0.0088446	2	-0.000138846	5.16136e-06
2	0	0	1	1	292.901	-0.586664	-0.586895	-0.00893746	2	-0.00013944	5.24535e-06
2	0	0	0	1	292.968	-0.590001	-0.590237	-0.00903198	2	-0.000140041	5.33101e-06
2	0	0	1	1	293.034	-0.59333	-0.593556	-0.00912449	2	-0.000140647	5.41589e-06
2	0	0	0	1	293.101	-0.59666	-0.596876	-0.00921826	2	-0.000141259	5.50216e-06
2	0	0	1	1	293.147	-0.598991	-0.599228	-0.00928251	2	-0.00014169	5.56234e-06
2	0	0	1	1	293.164	-0.599827	-0.600035	-0.00930772	2	-0.000141847	5.58496e-06