File: TAP_Report/Data/Res_PB/100 uM RS 10mM PB_05_CV_C01_2.mpt
EC-Lab ASCII FILE
Nb header lines : 53

Cyclic Voltammetry

Run on channel : 1 (SN 0696)
User :
Electrode connection : standard
Ewe ctrl range : min = -10.00 V, max = 10.00 V
Ewe,I filtering : 50 kHz
Channel : Grounded
Acquisition started on : 05/17/2017 12:53:20
Saved on :
	File : 100 uM RS 10mM PB_05_CV_C01.mpr
	Directory : \\userfs\st659\w2k\EC-Lab\Data\ITO Characterisation 17-5-17\
	Host : 144.32.136.43
Device : SP-300 (SN 0182)
Address : USB
EC-Lab for windows v10.44 (software)
Internet server v10.44 (firmware)
Command interpretor v10.44 (firmware)
Electrode material :
Initial state :
Electrolyte :
Comments :
Cable : standard
Electrode surface area : 0.001 cm²
Characteristic mass : 0.001 g
Equivalent Weight : 0.000 g/eq.
Density : 0.000 g/cm3
Ei (V)              0.000
vs.                 Eoc
dE/dt               500.000
dE/dt unit          mV/s
E1 (V)              0.100
vs.                 Ref
Step percent        50
N                   10
E range min (V)     -10.000
E range max (V)     10.000
I Range             Auto
I Range min         Unset
I Range max         Unset
I Range init        Unset
Bandwidth           8
E2 (V)              -0.600
vs.                 Ref
nc cycles           2
Reverse Scan        1
Ef (V)              0.000
vs.                 Eoc

mode	ox/red	error	control changes	counter inc.	time/s	control/V	Ewe/V	<I>/mA	cycle number	(Q-Qo)/C	P/W
2	1	0	0	1	412.787	-0.599827	-0.600031	-0.0124543	2	-8.23587e-06	7.47295e-06
2	1	0	1	1	412.791	-0.597994	-0.598216	-0.0119618	2	-8.27906e-06	7.15575e-06
2	1	0	0	1	412.797	-0.594696	-0.594919	-0.0113339	2	-8.35569e-06	6.74274e-06
2	1	0	0	1	412.804	-0.591297	-0.591507	-0.0108731	2	-8.43098e-06	6.43153e-06
2	1	0	1	1	412.811	-0.587998	-0.588213	-0.0105239	2	-8.50141e-06	6.19032e-06
2	1	0	0	1	412.817	-0.5847	-0.584907	-0.0102178	2	-8.56968e-06	5.97647e-06
2	1	0	0	1	412.824	-0.581301	-0.581501	-0.00992863	2	-8.63801e-06	5.7735e-06
2	1	0	1	1	412.831	-0.578002	-0.578216	-0.00967218	2	-8.70254e-06	5.59261e-06
2	1	0	0	1	412.837	-0.574703	-0.574918	-0.00943308	2	-8.76543e-06	5.42325e-06
2	1	0	0	1	412.844	-0.571305	-0.571527	-0.00919378	2	-8.82859e-06	5.25449e-06
2	1	0	1	1	412.851	-0.568006	-0.568221	-0.00897818	2	-8.8884e-06	5.10159e-06
2	1	0	0	1	412.857	-0.564707	-0.564921	-0.00876948	2	-8.94681e-06	4.95406e-06
2	1	0	0	1	412.864	-0.561308	-0.561509	-0.00856241	2	-9.00558e-06	4.80787e-06
2	1	0	1	1	412.871	-0.55801	-0.558221	-0.0083662	2	-9.06128e-06	4.67019e-06
2	1	0	0	1	412.877	-0.554711	-0.554931	-0.00817904	2	-9.11573e-06	4.5388e-06
2	1	0	0	1	412.884	-0.551312	-0.551515	-0.00798613	2	-9.17054e-06	4.40447e-06
2	1	0	1	1	412.891	-0.548014	-0.548224	-0.00780919	2	-9.22251e-06	4.28119e-06
2	1	0	0	1	412.897	-0.544715	-0.544923	-0.00763258	2	-9.27332e-06	4.15917e-06
2	1	0	0	1	412.904	-0.541316	-0.541507	-0.00745624	2	-9.32447e-06	4.03761e-06
2	1	0	1	1	412.911	-0.538017	-0.538212	-0.00729708	2	-9.37301e-06	3.92738e-06
2	1	0	0	1	412.917	-0.534719	-0.534914	-0.00713827	2	-9.4205e-06	3.81836e-06
2	1	0	0	1	412.924	-0.53132	-0.531534	-0.00697637	2	-9.46834e-06	3.70818e-06
2	1	0	1	1	412.931	-0.528021	-0.528225	-0.00682453	2	-9.51374e-06	3.60488e-06
2	1	0	0	1	412.937	-0.524722	-0.524939	-0.00667885	2	-9.55815e-06	3.50599e-06
2	1	0	0	1	412.944	-0.521324	-0.521528	-0.00652707	2	-9.60291e-06	3.40405e-06
2	1	0	1	1	412.951	-0.518003	-0.518191	-0.00638026	2	-9.64537e-06	3.30619e-06
2	1	0	0	1	412.957	-0.514693	-0.514901	-0.00624367	2	-9.68688e-06	3.21487e-06
2	1	0	1	1	412.964	-0.511394	-0.511614	-0.00611139	2	-9.72752e-06	3.12667e-06
2	1	0	1	1	412.971	-0.507995	-0.508207	-0.00597598	2	-9.76847e-06	3.03704e-06
2	1	0	0	1	412.977	-0.504697	-0.504904	-0.00584878	2	-9.80734e-06	2.95307e-06
2	1	0	1	1	412.984	-0.501398	-0.501614	-0.00572037	2	-9.84537e-06	2.86942e-06
2	1	0	1	1	412.991	-0.497999	-0.4982	-0.00558783	2	-9.88367e-06	2.78386e-06
2	1	0	0	1	412.997	-0.4947	-0.494907	-0.00547161	2	-9.92002e-06	2.70794e-06
2	1	0	1	1	413.004	-0.491402	-0.491603	-0.00535462	2	-9.9556e-06	2.63235e-06
2	1	0	1	1	413.011	-0.488003	-0.488211	-0.0052354	2	-9.99146e-06	2.55598e-06
2	1	0	0	1	413.017	-0.484704	-0.484901	-0.00512108	2	-1.00255e-05	2.48322e-06
2	1	0	1	1	413.024	-0.481406	-0.481624	-0.00501015	2	-1.00588e-05	2.41301e-06
2	1	0	1	1	413.031	-0.478007	-0.47821	-0.00489887	2	-1.00923e-05	2.34269e-06
2	1	0	0	1	413.037	-0.474708	-0.474915	-0.0047933	2	-1.01242e-05	2.27641e-06
2	1	0	1	1	413.044	-0.471409	-0.471626	-0.00469106	2	-1.01553e-05	2.21243e-06
2	1	0	1	1	413.051	-0.468011	-0.468216	-0.00458197	2	-1.01867e-05	2.14536e-06
2	1	0	0	1	413.057	-0.464712	-0.464896	-0.00447879	2	-1.02165e-05	2.08217e-06
2	1	0	1	1	413.064	-0.461413	-0.461613	-0.00438076	2	-1.02456e-05	2.02222e-06
2	1	0	1	1	413.071	-0.458014	-0.458195	-0.00427986	2	-1.02749e-05	1.96101e-06
2	1	0	0	1	413.077	-0.454716	-0.454887	-0.00418546	2	-1.03027e-05	1.90391e-06
2	1	0	1	1	413.084	-0.451417	-0.451599	-0.00409651	2	-1.03299e-05	1.84998e-06
2	1	0	1	1	413.091	-0.448018	-0.448199	-0.00400174	2	-1.03572e-05	1.79357e-06
2	1	0	0	1	413.113	-0.43707	-0.437279	-0.00372185	2	-1.04418e-05	1.62749e-06
2	1	0	0	1	413.135	-0.426093	-0.426298	-0.0034478	2	-1.05245e-05	1.46979e-06
2	1	0	0	1	413.141	-0.422695	-0.422905	-0.00336739	2	-1.05476e-05	1.42409e-06
2	1	0	1	1	413.148	-0.419396	-0.419617	-0.00329015	2	-1.05694e-05	1.3806e-06
2	1	0	0	1	413.155	-0.416097	-0.416317	-0.00321274	2	-1.05908e-05	1.33752e-06
2	1	0	0	1	413.161	-0.412698	-0.412898	-0.00313299	2	-1.06122e-05	1.2936e-06
2	1	0	1	1	413.168	-0.4094	-0.409582	-0.00306001	2	-1.06325e-05	1.25333e-06
2	1	0	0	1	413.175	-0.406101	-0.406297	-0.00298745	2	-1.06524e-05	1.21379e-06
2	1	0	0	1	413.181	-0.402702	-0.402944	-0.0029169	2	-1.06723e-05	1.17535e-06
2	1	0	1	1	413.188	-0.399404	-0.399606	-0.00284536	2	-1.06912e-05	1.13702e-06
2	1	0	0	1	413.195	-0.396105	-0.396346	-0.00277554	2	-1.07097e-05	1.10007e-06
2	1	0	0	1	413.201	-0.392706	-0.392933	-0.00270355	2	-1.07282e-05	1.06231e-06
2	1	0	1	1	413.208	-0.389407	-0.389629	-0.00263498	2	-1.07457e-05	1.02667e-06
2	1	0	0	1	413.215	-0.386109	-0.386318	-0.00256999	2	-1.07628e-05	9.92835e-07
2	1	0	0	1	413.221	-0.38271	-0.382927	-0.00250042	2	-1.07799e-05	9.5748e-07
2	1	0	1	1	413.228	-0.379411	-0.379608	-0.00243482	2	-1.0796e-05	9.24277e-07
2	1	0	0	1	413.235	-0.376112	-0.376318	-0.00237303	2	-1.08118e-05	8.93013e-07
2	1	0	0	1	413.241	-0.372714	-0.37289	-0.00230706	2	-1.08276e-05	8.60281e-07
2	1	0	1	1	413.248	-0.369415	-0.369594	-0.00224324	2	-1.08425e-05	8.29086e-07
2	1	0	0	1	413.255	-0.366116	-0.366302	-0.00218329	2	-1.0857e-05	7.99744e-07
2	1	0	0	1	413.261	-0.362718	-0.36291	-0.00212093	2	-1.08715e-05	7.69706e-07
2	1	0	1	1	413.268	-0.359419	-0.359648	-0.00206222	2	-1.08852e-05	7.41672e-07
2	1	0	0	1	413.275	-0.35612	-0.356335	-0.00200202	2	-1.08985e-05	7.13391e-07
2	1	0	0	1	413.281	-0.352721	-0.352938	-0.00194007	2	-1.09118e-05	6.84724e-07
2	1	0	1	1	413.288	-0.349423	-0.349635	-0.00188006	2	-1.09243e-05	6.57335e-07
2	1	0	0	1	413.295	-0.346124	-0.346333	-0.00182077	2	-1.09364e-05	6.30593e-07
2	1	0	0	1	413.301	-0.342758	-0.342976	-0.00176059	2	-1.09483e-05	6.03841e-07
2	1	0	1	1	413.308	-0.339393	-0.339592	-0.00169997	2	-1.09598e-05	5.77295e-07
2	1	0	0	1	413.315	-0.336094	-0.336284	-0.00164076	2	-1.09707e-05	5.5176e-07
2	1	0	1	1	413.321	-0.332796	-0.332972	-0.00158688	2	-1.09812e-05	5.28385e-07
2	1	0	1	1	413.328	-0.329397	-0.32958	-0.00152923	2	-1.09917e-05	5.04005e-07
2	1	0	0	1	413.335	-0.326098	-0.326253	-0.00147055	2	-1.10015e-05	4.79771e-07
2	1	0	1	1	413.341	-0.322799	-0.322972	-0.00141758	2	-1.10109e-05	4.57837e-07
2	1	0	1	1	413.348	-0.319401	-0.319573	-0.00136083	2	-1.10202e-05	4.34885e-07
2	1	0	0	1	413.355	-0.316102	-0.316293	-0.00130501	2	-1.10289e-05	4.12765e-07
2	1	0	1	1	413.361	-0.312803	-0.312978	-0.00124911	2	-1.10372e-05	3.90945e-07
2	1	0	1	1	413.368	-0.309404	-0.309589	-0.00119231	2	-1.10454e-05	3.69127e-07
2	1	0	0	1	413.375	-0.306106	-0.3063	-0.00113504	2	-1.1053e-05	3.47663e-07
2	1	0	1	1	413.381	-0.302807	-0.303	-0.00108081	2	-1.10602e-05	3.27486e-07
2	1	0	1	1	413.388	-0.299408	-0.299578	-0.00102409	2	-1.10673e-05	3.06795e-07
2	1	0	0	1	413.395	-0.29611	-0.296275	-0.000966095	2	-1.10737e-05	2.8623e-07
2	1	0	1	1	413.401	-0.292811	-0.292973	-0.00091109	2	-1.10798e-05	2.66925e-07
2	1	0	1	1	413.408	-0.289412	-0.289576	-0.000855026	2	-1.10857e-05	2.47595e-07
2	1	0	0	1	413.415	-0.286113	-0.286273	-0.000800461	2	-1.1091e-05	2.2915e-07
2	1	0	1	1	413.421	-0.282815	-0.282947	-0.00074354	2	-1.1096e-05	2.10383e-07
2	1	0	1	1	413.428	-0.279416	-0.27956	-0.000689343	2	-1.11008e-05	1.92713e-07
2	1	0	0	1	413.435	-0.276117	-0.276287	-0.000635079	2	-1.1105e-05	1.75464e-07
2	1	0	1	1	413.441	-0.272818	-0.272982	-0.000580283	2	-1.11089e-05	1.58407e-07
2	1	0	1	1	413.448	-0.26942	-0.269588	-0.000525235	2	-1.11126e-05	1.41597e-07
2	1	0	0	1	413.455	-0.266121	-0.266296	-0.000468991	2	-1.11158e-05	1.24891e-07
2	1	0	1	1	413.461	-0.262822	-0.262988	-0.000413113	2	-1.11186e-05	1.08644e-07
2	1	0	1	1	413.468	-0.259424	-0.259593	-0.000360165	2	-1.11211e-05	9.34962e-08
2	1	0	0	1	413.475	-0.256114	-0.256292	-0.000304393	2	-1.11232e-05	7.80134e-08
2	1	0	1	1	413.481	-0.252793	-0.25298	-0.000250814	2	-1.11249e-05	6.3451e-08
2	1	0	0	1	413.488	-0.249494	-0.249665	-0.000197258	2	-1.11262e-05	4.92485e-08
2	1	0	0	1	413.495	-0.246095	-0.246264	-0.000143088	2	-1.11273e-05	3.52374e-08
2	1	0	1	1	413.501	-0.242797	-0.242961	-9.24636e-05	2	-1.1128e-05	2.24651e-08
2	1	0	0	1	413.508	-0.239498	-0.239649	-4.25388e-05	2	-1.11283e-05	1.01944e-08
2	1	0	0	1	413.515	-0.236099	-0.236271	6.83477e-06	2	-1.11283e-05	1.61485e-09
2	1	0	1	1	413.521	-0.2328	-0.23298	5.34457e-05	2	-1.1128e-05	1.24518e-08
2	1	0	0	1	413.528	-0.229502	-0.229678	0.000101151	2	-1.11274e-05	2.32322e-08
2	1	0	0	1	413.535	-0.226103	-0.226292	0.000146161	2	-1.11264e-05	3.30751e-08
2	1	0	1	1	413.541	-0.222804	-0.222985	0.000191364	2	-1.11252e-05	4.26714e-08
2	1	0	0	1	413.548	-0.219505	-0.219674	0.000235606	2	-1.11237e-05	5.17566e-08
2	1	0	0	1	413.555	-0.216107	-0.216282	0.000275511	2	-1.11218e-05	5.95882e-08
2	1	0	1	1	413.561	-0.212808	-0.212983	0.000317723	2	-1.11198e-05	6.76694e-08
2	1	0	0	1	413.568	-0.209509	-0.209647	0.000359882	2	-1.11174e-05	7.5448e-08
2	1	0	0	1	413.575	-0.206111	-0.206263	0.000396737	2	-1.11148e-05	8.1832e-08
2	1	0	1	1	413.581	-0.202812	-0.202968	0.000430485	2	-1.11119e-05	8.73746e-08
2	1	0	0	1	413.588	-0.199513	-0.199662	0.000468729	2	-1.11088e-05	9.35873e-08
2	1	0	0	1	413.595	-0.196114	-0.196245	0.00050259	2	-1.11054e-05	9.86308e-08
2	1	0	1	1	413.601	-0.192816	-0.192973	0.00053388	2	-1.11019e-05	1.03024e-07
2	1	0	0	1	413.608	-0.189517	-0.189686	0.000565342	2	-1.10982e-05	1.07238e-07
2	1	0	0	1	413.615	-0.186118	-0.186316	0.000598234	2	-1.10941e-05	1.1146e-07
2	1	0	1	1	413.621	-0.182819	-0.182987	0.000629428	2	-1.109e-05	1.15177e-07
2	1	0	0	1	413.628	-0.179521	-0.179678	0.000660426	2	-1.10856e-05	1.18664e-07
2	1	0	0	1	413.635	-0.176122	-0.176269	0.000691292	2	-1.10809e-05	1.21854e-07
2	1	0	1	1	413.641	-0.172823	-0.17297	0.000715591	2	-1.10761e-05	1.23776e-07
2	1	0	0	1	413.648	-0.169524	-0.169669	0.000743012	2	-1.10712e-05	1.26066e-07
2	1	0	1	1	413.654	-0.166192	-0.166349	0.000774996	2	-1.10661e-05	1.2892e-07
2	1	0	1	1	413.661	-0.162794	-0.162949	0.000799084	2	-1.10606e-05	1.3021e-07
2	1	0	0	1	413.668	-0.159495	-0.159654	0.000824871	2	-1.10552e-05	1.31694e-07
2	1	0	1	1	413.674	-0.156196	-0.156343	0.000849314	2	-1.10495e-05	1.32784e-07
2	1	0	1	1	413.681	-0.152798	-0.152929	0.000873786	2	-1.10436e-05	1.33627e-07
2	1	0	0	1	413.688	-0.149499	-0.149639	0.000895706	2	-1.10376e-05	1.34033e-07
2	1	0	1	1	413.694	-0.1462	-0.146378	0.000915837	2	-1.10315e-05	1.34058e-07
2	1	0	1	1	413.701	-0.142801	-0.142947	0.000941064	2	-1.10251e-05	1.34522e-07
2	1	0	0	1	413.708	-0.139503	-0.139643	0.000962242	2	-1.10187e-05	1.34371e-07
2	1	0	1	1	413.714	-0.136204	-0.136375	0.000983912	2	-1.10122e-05	1.34181e-07
2	1	0	1	1	413.721	-0.132805	-0.132964	0.00100673	2	-1.10053e-05	1.33859e-07
2	1	0	0	1	413.728	-0.129506	-0.129665	0.00102546	2	-1.09985e-05	1.32966e-07
2	1	0	1	1	413.734	-0.126208	-0.126338	0.00104634	2	-1.09916e-05	1.32192e-07
2	1	0	1	1	413.741	-0.122809	-0.12293	0.00106814	2	-1.09843e-05	1.31305e-07
2	1	0	0	1	413.748	-0.11951	-0.119656	0.00108532	2	-1.09771e-05	1.29865e-07
2	1	0	1	1	413.754	-0.116211	-0.116351	0.00110273	2	-1.09697e-05	1.28303e-07
2	1	0	1	1	413.761	-0.112813	-0.112922	0.00112403	2	-1.09621e-05	1.26927e-07
2	1	0	0	1	413.768	-0.109514	-0.109636	0.0011389	2	-1.09545e-05	1.24865e-07
2	1	0	1	1	413.774	-0.106215	-0.106356	0.00115468	2	-1.09468e-05	1.22807e-07
2	1	0	1	1	413.781	-0.102817	-0.102947	0.00117103	2	-1.09388e-05	1.20554e-07
2	1	0	0	1	413.788	-0.0995178	-0.0996706	0.00118702	2	-1.09309e-05	1.18311e-07
2	1	0	1	1	413.794	-0.0962191	-0.0963582	0.00120272	2	-1.09229e-05	1.15892e-07
2	1	0	1	1	413.801	-0.0928204	-0.0929549	0.0012183	2	-1.09146e-05	1.13247e-07
2	1	0	0	1	413.808	-0.0895217	-0.0896667	0.00123174	2	-1.09064e-05	1.10446e-07
2	1	0	1	1	413.814	-0.0862229	-0.0863633	0.00124398	2	-1.08981e-05	1.07434e-07
2	1	0	1	1	413.821	-0.0828242	-0.0829939	0.00125432	2	-1.08895e-05	1.04101e-07
2	1	0	0	1	413.828	-0.0794921	-0.079649	0.00126984	2	-1.08811e-05	1.01142e-07
2	1	0	1	1	413.834	-0.0761934	-0.0763426	0.00127922	2	-1.08726e-05	9.76589e-08
2	1	0	0	1	413.841	-0.0728947	-0.0730353	0.00129019	2	-1.0864e-05	9.42292e-08
2	1	0	0	1	413.848	-0.069496	-0.0696366	0.00130014	2	-1.08551e-05	9.05371e-08
2	1	0	1	1	413.854	-0.0661972	-0.0663373	0.00130641	2	-1.08464e-05	8.66638e-08
2	1	0	0	1	413.861	-0.0628985	-0.0630461	0.00131313	2	-1.08376e-05	8.27879e-08
2	1	0	0	1	413.868	-0.0594998	-0.0596617	0.00131973	2	-1.08286e-05	7.8737e-08
2	1	0	1	1	413.874	-0.056201	-0.0563712	0.00132738	2	-1.08197e-05	7.4826e-08
2	1	0	0	1	413.881	-0.0529023	-0.0530672	0.0013352	2	-1.08108e-05	7.08552e-08
2	1	0	0	1	413.888	-0.0495036	-0.0496679	0.00134249	2	-1.08016e-05	6.66788e-08
2	1	0	1	1	413.894	-0.0462048	-0.0463596	0.00134565	2	-1.07927e-05	6.23839e-08
2	1	0	0	1	413.901	-0.0429061	-0.0430596	0.00135107	2	-1.07836e-05	5.81765e-08
2	1	0	0	1	413.908	-0.0395074	-0.0396348	0.00135975	2	-1.07743e-05	5.38936e-08
2	1	0	1	1	413.914	-0.0362086	-0.0363541	0.00135999	2	-1.07652e-05	4.94412e-08
2	1	0	0	1	413.921	-0.0329099	-0.0330657	0.00136412	2	-1.07561e-05	4.51056e-08
2	1	0	0	1	413.928	-0.0295112	-0.0296534	0.00137045	2	-1.07467e-05	4.06386e-08
2	1	0	1	1	413.934	-0.0262125	-0.0263407	0.00137206	2	-1.07376e-05	3.6141e-08
2	1	0	0	1	413.941	-0.0229137	-0.0230451	0.00137386	2	-1.07284e-05	3.16607e-08
2	1	0	0	1	413.948	-0.019515	-0.019661	0.00137521	2	-1.0719e-05	2.70381e-08
2	1	0	1	1	413.954	-0.0162163	-0.0163581	0.00137799	2	-1.07098e-05	2.25412e-08
2	1	0	0	1	413.961	-0.0129175	-0.0130702	0.00137915	2	-1.07006e-05	1.80258e-08
2	1	0	0	1	413.968	-0.00951882	-0.00965545	0.00138285	2	-1.06911e-05	1.33521e-08
2	1	0	1	1	413.974	-0.00622008	-0.00635919	0.00138584	2	-1.06819e-05	8.81284e-09
2	1	0	0	1	413.981	-0.00292133	-0.00307914	0.00138456	2	-1.06726e-05	4.26327e-09
2	1	0	0	1	413.988	0.00049038	0.00032516	0.00138928	2	-1.06631e-05	4.51738e-10
2	1	0	1	1	413.994	0.00377611	0.00365118	0.00139463	2	-1.06538e-05	5.09203e-09
2	1	0	0	1	414.001	0.00709706	0.00696919	0.00139645	2	-1.06445e-05	9.73213e-09
2	1	0	1	1	414.008	0.0104069	0.0102962	0.0013958	2	-1.06351e-05	1.43715e-08
2	1	0	1	1	414.014	0.0138056	0.0136964	0.00139867	2	-1.06255e-05	1.91567e-08
2	1	0	0	1	414.021	0.0171044	0.0170093	0.0013979	2	-1.06162e-05	2.37773e-08
2	1	0	1	1	414.028	0.0204031	0.0202952	0.00139911	2	-1.06069e-05	2.83951e-08
2	1	0	1	1	414.034	0.0238018	0.0236732	0.00139741	2	-1.05973e-05	3.30812e-08
2	1	0	0	1	414.041	0.0271005	0.0269941	0.00140262	2	-1.05879e-05	3.78625e-08
2	1	0	1	1	414.048	0.0303993	0.0302641	0.00140383	2	-1.05785e-05	4.24856e-08
2	1	0	1	1	414.054	0.033798	0.0336797	0.00140547	2	-1.05689e-05	4.73357e-08
2	1	0	0	1	414.061	0.0370967	0.0369923	0.00140869	2	-1.05595e-05	5.21108e-08
2	1	0	1	1	414.068	0.0403955	0.0402696	0.00140775	2	-1.05501e-05	5.66895e-08
2	1	0	1	1	414.074	0.0437942	0.0436833	0.00141245	2	-1.05404e-05	6.17006e-08
2	1	0	0	1	414.081	0.0470929	0.0469916	0.00141714	2	-1.0531e-05	6.65937e-08
2	1	0	1	1	414.088	0.0503917	0.0502864	0.00141718	2	-1.05215e-05	7.12651e-08
2	1	0	1	1	414.094	0.0537904	0.0536956	0.00142032	2	-1.05118e-05	7.62649e-08
2	1	0	0	1	414.101	0.0570891	0.0570276	0.00142565	2	-1.05023e-05	8.13012e-08
2	1	0	1	1	414.108	0.0603878	0.0603221	0.00142701	2	-1.04927e-05	8.60802e-08
2	1	0	1	1	414.114	0.0637865	0.0637015	0.00142892	2	-1.04829e-05	9.10245e-08
2	1	0	0	1	414.121	0.0670853	0.0670141	0.00143252	2	-1.04734e-05	9.59991e-08
2	1	0	1	1	414.128	0.070384	0.0702887	0.00143632	2	-1.04638e-05	1.00957e-07
2	1	0	1	1	414.134	0.0737827	0.0736838	0.00143953	2	-1.04539e-05	1.0607e-07
2	1	0	0	1	414.141	0.0770815	0.0769726	0.00144459	2	-1.04443e-05	1.11194e-07
2	1	0	1	1	414.148	0.0803802	0.0802985	0.00144878	2	-1.04347e-05	1.16335e-07
2	1	0	1	1	414.154	0.0837789	0.0836822	0.00145256	2	-1.04247e-05	1.21554e-07
2	1	0	0	1	414.161	0.0870776	0.086954	0.00145502	2	-1.0415e-05	1.2652e-07
2	1	0	1	1	414.168	0.0903764	0.0902615	0.00146201	2	-1.04053e-05	1.31964e-07
2	1	0	1	1	414.174	0.0937418	0.0936279	0.00146842	2	-1.03953e-05	1.37485e-07
2	1	0	0	1	414.181	0.0971072	0.0969935	0.0014754	2	-1.03854e-05	1.43105e-07
2	1	0	1	1	414.185	0.0992635	0.0991512	0.00147998	2	-1.0379e-05	1.46742e-07
2	0	0	1	1	414.187	0.0999061	0.0997841	0.00144674	2	-1.03761e-05	1.44362e-07
2	0	0	1	1	414.191	0.0980401	0.0979304	0.000900017	2	-1.03725e-05	8.8139e-08
2	0	0	0	1	414.198	0.0947303	0.0945951	0.000378411	2	-1.03685e-05	3.57958e-08
2	0	0	1	1	414.204	0.0914093	0.0912706	0.000109783	2	-1.0367e-05	1.00199e-08
2	0	0	0	1	414.211	0.0881106	0.0879655	-5.64272e-05	2	-1.0367e-05	4.96365e-09
2	0	0	0	1	414.218	0.0847119	0.0845929	-0.000174248	2	-1.03679e-05	1.47402e-08
2	0	0	1	1	414.224	0.0814131	0.0812941	-0.000268166	2	-1.03695e-05	2.18003e-08
2	0	0	0	1	414.231	0.0781144	0.0779973	-0.000347934	2	-1.03716e-05	2.7138e-08
2	0	0	0	1	414.238	0.0747157	0.0745969	-0.000422405	2	-1.03743e-05	3.15101e-08
2	0	0	1	1	414.244	0.071417	0.0713077	-0.000483472	2	-1.03774e-05	3.44753e-08
2	0	0	0	1	414.251	0.0681182	0.0679944	-0.000542944	2	-1.03809e-05	3.69171e-08
2	0	0	0	1	414.258	0.0647195	0.0645996	-0.000598655	2	-1.03849e-05	3.86729e-08
2	0	0	1	1	414.264	0.0614208	0.0613009	-0.000650391	2	-1.03892e-05	3.98695e-08
2	0	0	0	1	414.271	0.058122	0.058021	-0.000698344	2	-1.03937e-05	4.05186e-08
2	0	0	0	1	414.278	0.0547233	0.0546084	-0.000750208	2	-1.03988e-05	4.09677e-08
2	0	0	1	1	414.284	0.0514246	0.0513062	-0.00079627	2	-1.0404e-05	4.08536e-08
2	0	0	0	1	414.291	0.0481258	0.0480069	-0.00083798	2	-1.04095e-05	4.02288e-08
2	0	0	0	1	414.298	0.0447272	0.0445965	-0.000884503	2	-1.04155e-05	3.94457e-08
2	0	0	1	1	414.304	0.0414284	0.0412725	-0.000926178	2	-1.04215e-05	3.82257e-08
2	0	0	0	1	414.311	0.0381297	0.0379797	-0.000964122	2	-1.04279e-05	3.66171e-08
2	0	0	0	1	414.318	0.034731	0.0345872	-0.00100548	2	-1.04347e-05	3.47766e-08
2	0	0	1	1	414.324	0.0314322	0.0312926	-0.00104268	2	-1.04415e-05	3.26282e-08
2	0	0	0	1	414.331	0.0281335	0.0279886	-0.00108093	2	-1.04487e-05	3.02536e-08
2	0	0	0	1	414.338	0.0247348	0.0245889	-0.00111693	2	-1.04562e-05	2.7464e-08
2	0	0	1	1	414.344	0.021436	0.0213116	-0.00115032	2	-1.04638e-05	2.45153e-08
2	0	0	0	1	414.351	0.0181373	0.0179892	-0.001187	2	-1.04717e-05	2.13531e-08
2	0	0	0	1	414.358	0.0147386	0.0146143	-0.00122173	2	-1.048e-05	1.78547e-08
2	0	0	1	1	414.364	0.0114399	0.0112922	-0.0012591	2	-1.04883e-05	1.4218e-08
2	0	0	0	1	414.371	0.00814111	0.00798676	-0.00129292	2	-1.04968e-05	1.03262e-08
2	0	0	1	1	414.377	0.00480905	0.00466144	-0.00132894	2	-1.05056e-05	6.19479e-09
2	0	0	1	1	414.384	0.00141035	0.00124302	-0.00136452	2	-1.05148e-05	1.69613e-09
2	0	0	0	1	414.391	-0.0018884	-0.00208949	-0.00139617	2	-1.0524e-05	2.91727e-09
2	0	0	1	1	414.397	-0.00518714	-0.00537678	-0.00142502	2	-1.05335e-05	7.66202e-09
2	0	0	1	1	414.404	-0.00858584	-0.00877059	-0.00145799	2	-1.05434e-05	1.27875e-08
2	0	0	0	1	414.411	-0.0118846	-0.0120845	-0.00148825	2	-1.05532e-05	1.79847e-08
2	0	0	1	1	414.417	-0.0151833	-0.0153545	-0.00151857	2	-1.05632e-05	2.33168e-08
2	0	0	1	1	414.424	-0.018582	-0.0187644	-0.00155073	2	-1.05738e-05	2.90984e-08
2	0	0	0	1	414.431	-0.0218808	-0.0220458	-0.00158016	2	-1.05842e-05	3.48358e-08
2	0	0	1	1	414.437	-0.0251795	-0.0253451	-0.00161012	2	-1.05949e-05	4.08088e-08
2	0	0	1	1	414.444	-0.0285782	-0.0287323	-0.00164178	2	-1.0606e-05	4.71721e-08
2	0	0	0	1	414.451	-0.031877	-0.0320636	-0.00167339	2	-1.06171e-05	5.36549e-08
2	0	0	1	1	414.457	-0.0351757	-0.0353403	-0.0017023	2	-1.06283e-05	6.01598e-08
2	0	0	1	1	414.464	-0.0385744	-0.0387478	-0.00173269	2	-1.06401e-05	6.71379e-08
2	0	0	0	1	414.471	-0.0418731	-0.0420691	-0.00176341	2	-1.06517e-05	7.41853e-08
2	0	0	1	1	414.477	-0.0451719	-0.0453607	-0.0017925	2	-1.06636e-05	8.13092e-08
2	0	0	1	1	414.484	-0.0485706	-0.0487648	-0.00182122	2	-1.0676e-05	8.88117e-08
2	0	0	0	1	414.491	-0.0518693	-0.0520603	-0.00185092	2	-1.06882e-05	9.63592e-08
2	0	0	1	1	414.497	-0.0551681	-0.0553721	-0.00187937	2	-1.07006e-05	1.04065e-07
2	0	0	1	1	414.504	-0.0585668	-0.0587527	-0.00190674	2	-1.07136e-05	1.12026e-07
2	0	0	0	1	414.511	-0.0618655	-0.0620523	-0.0019353	2	-1.07264e-05	1.2009e-07
2	0	0	1	1	414.517	-0.0651643	-0.0653583	-0.00196386	2	-1.07394e-05	1.28355e-07
2	0	0	1	1	414.524	-0.068563	-0.0687303	-0.00199056	2	-1.07529e-05	1.36811e-07
2	0	0	0	1	414.531	-0.0718617	-0.0720525	-0.00202089	2	-1.07663e-05	1.4561e-07
2	0	0	1	1	414.537	-0.0751605	-0.0753484	-0.00204939	2	-1.07798e-05	1.54418e-07
2	0	0	1	1	414.544	-0.0785592	-0.0787698	-0.00207743	2	-1.0794e-05	1.63639e-07
2	0	0	0	1	414.551	-0.0818912	-0.08207	-0.00210983	2	-1.08079e-05	1.73154e-07
2	0	0	1	1	414.557	-0.08519	-0.0853662	-0.00213304	2	-1.0822e-05	1.82089e-07
2	0	0	0	1	414.564	-0.0884887	-0.0886649	-0.00215982	2	-1.08363e-05	1.915e-07
2	0	0	0	1	414.571	-0.0918874	-0.0920478	-0.00218853	2	-1.08512e-05	2.0145e-07
2	0	0	1	1	414.577	-0.0951862	-0.095372	-0.00221774	2	-1.08658e-05	2.11511e-07
2	0	0	0	1	414.584	-0.0984849	-0.0986615	-0.00224467	2	-1.08806e-05	2.21463e-07
2	0	0	0	1	414.591	-0.101884	-0.102033	-0.00227281	2	-1.08961e-05	2.31901e-07
2	0	0	1	1	414.597	-0.105182	-0.10536	-0.0022994	2	-1.09113e-05	2.42264e-07
2	0	0	0	1	414.604	-0.108481	-0.10865	-0.00232667	2	-1.09267e-05	2.52794e-07
2	0	0	0	1	414.611	-0.11188	-0.112047	-0.00235517	2	-1.09427e-05	2.6389e-07
2	0	0	1	1	414.617	-0.115179	-0.115353	-0.00238436	2	-1.09584e-05	2.75043e-07
2	0	0	0	1	414.624	-0.118477	-0.118637	-0.00241178	2	-1.09744e-05	2.86126e-07
2	0	0	0	1	414.631	-0.121876	-0.122041	-0.00244147	2	-1.0991e-05	2.97959e-07
2	0	0	1	1	414.637	-0.125175	-0.12535	-0.00246896	2	-1.10073e-05	3.09484e-07
2	0	0	0	1	414.644	-0.128473	-0.128674	-0.00249859	2	-1.10238e-05	3.21503e-07
2	0	0	0	1	414.651	-0.131872	-0.132059	-0.0025264	2	-1.1041e-05	3.33635e-07
2	0	0	1	1	414.657	-0.135171	-0.135364	-0.00255359	2	-1.10579e-05	3.45664e-07
2	0	0	0	1	414.664	-0.13847	-0.138673	-0.00258461	2	-1.10749e-05	3.58414e-07
2	0	0	0	1	414.671	-0.141868	-0.142073	-0.00261287	2	-1.10927e-05	3.7122e-07
2	0	0	1	1	414.677	-0.145167	-0.145374	-0.00263973	2	-1.11102e-05	3.83747e-07
2	0	0	0	1	414.684	-0.148466	-0.148661	-0.00266563	2	-1.11278e-05	3.96275e-07
2	0	0	0	1	414.691	-0.151865	-0.152067	-0.00269559	2	-1.11461e-05	4.09911e-07
2	0	0	1	1	414.697	-0.155163	-0.155355	-0.00272203	2	-1.11641e-05	4.2288e-07
2	0	0	0	1	414.704	-0.158462	-0.158652	-0.00275293	2	-1.11823e-05	4.3676e-07
2	0	0	0	1	414.711	-0.161861	-0.162048	-0.00278266	2	-1.12012e-05	4.50925e-07
2	0	0	1	1	414.717	-0.165159	-0.165353	-0.00281025	2	-1.12198e-05	4.64684e-07
2	0	0	0	1	414.724	-0.16848	-0.16869	-0.00284361	2	-1.12385e-05	4.79689e-07
2	0	0	1	1	414.731	-0.17179	-0.172006	-0.0028719	2	-1.12575e-05	4.93984e-07
2	0	0	1	1	414.737	-0.175189	-0.175393	-0.00289939	2	-1.12772e-05	5.08532e-07
2	0	0	0	1	414.744	-0.178488	-0.178701	-0.00292949	2	-1.12966e-05	5.23505e-07
2	0	0	1	1	414.751	-0.181786	-0.181994	-0.00295929	2	-1.13161e-05	5.38574e-07
2	0	0	1	1	414.757	-0.185185	-0.185398	-0.00298929	2	-1.13364e-05	5.54208e-07
2	0	0	0	1	414.764	-0.188484	-0.188694	-0.00301772	2	-1.13564e-05	5.69424e-07
2	0	0	1	1	414.771	-0.191783	-0.191975	-0.00304713	2	-1.13765e-05	5.84975e-07
2	0	0	1	1	414.777	-0.195181	-0.195373	-0.00307806	2	-1.13974e-05	6.01369e-07
2	0	0	0	1	414.784	-0.19848	-0.198668	-0.00311082	2	-1.1418e-05	6.18018e-07
2	0	0	1	1	414.791	-0.201779	-0.201983	-0.00314577	2	-1.14387e-05	6.35392e-07
2	0	0	1	1	414.797	-0.205178	-0.205379	-0.00317906	2	-1.14603e-05	6.52912e-07
2	0	0	0	1	414.804	-0.208476	-0.208679	-0.00321144	2	-1.14815e-05	6.70159e-07
2	0	0	1	1	414.811	-0.211775	-0.211988	-0.00324802	2	-1.1503e-05	6.88543e-07
2	0	0	1	1	414.817	-0.215174	-0.215393	-0.00328382	2	-1.15253e-05	7.07311e-07
2	0	0	0	1	414.824	-0.218472	-0.21868	-0.00331745	2	-1.15472e-05	7.2546e-07
2	0	0	1	1	414.831	-0.221771	-0.221981	-0.00335629	2	-1.15693e-05	7.45032e-07
2	0	0	1	1	414.837	-0.22517	-0.225388	-0.00339531	2	-1.15924e-05	7.65263e-07
2	0	0	0	1	414.844	-0.228469	-0.228702	-0.00343524	2	-1.1615e-05	7.85647e-07
2	0	0	1	1	414.851	-0.231767	-0.231998	-0.00347587	2	-1.16379e-05	8.06396e-07
2	0	0	1	1	414.857	-0.235166	-0.235383	-0.00351613	2	-1.16618e-05	8.27637e-07
2	0	0	0	1	414.864	-0.238465	-0.23867	-0.00355845	2	-1.16853e-05	8.49295e-07
2	0	0	1	1	414.871	-0.241764	-0.241967	-0.00360428	2	-1.1709e-05	8.72119e-07
2	0	0	1	1	414.877	-0.245162	-0.245378	-0.00365318	2	-1.17338e-05	8.9641e-07
2	0	0	0	1	414.884	-0.248461	-0.248679	-0.00370077	2	-1.17582e-05	9.20304e-07
2	0	0	1	1	414.891	-0.25176	-0.251964	-0.00374734	2	-1.17829e-05	9.44195e-07
2	0	0	1	1	414.897	-0.255125	-0.255327	-0.00379928	2	-1.18083e-05	9.70057e-07
2	0	0	0	1	414.904	-0.258491	-0.258695	-0.00385339	2	-1.1834e-05	9.96852e-07
2	0	0	1	1	414.911	-0.261789	-0.261992	-0.00390433	2	-1.18597e-05	1.0229e-06
2	0	0	0	1	414.917	-0.265088	-0.265291	-0.00395866	2	-1.18858e-05	1.05019e-06
2	0	0	0	1	414.924	-0.268487	-0.268699	-0.00401401	2	-1.1913e-05	1.07856e-06
2	0	0	1	1	414.931	-0.271786	-0.271992	-0.00406915	2	-1.19398e-05	1.10678e-06
2	0	0	0	1	414.937	-0.275084	-0.275283	-0.00412666	2	-1.19669e-05	1.136e-06
2	0	0	0	1	414.944	-0.278483	-0.278658	-0.00418374	2	-1.19953e-05	1.16583e-06
2	0	0	1	1	414.951	-0.281782	-0.281962	-0.0042412	2	-1.20232e-05	1.19586e-06
2	0	0	0	1	414.957	-0.28508	-0.285253	-0.0043004	2	-1.20515e-05	1.2267e-06
2	0	0	0	1	414.964	-0.288479	-0.288661	-0.00436241	2	-1.20811e-05	1.25926e-06
2	0	0	1	1	414.971	-0.291778	-0.291957	-0.00442244	2	-1.21102e-05	1.29116e-06
2	0	0	0	1	414.977	-0.295077	-0.295253	-0.0044805	2	-1.21397e-05	1.32288e-06
2	0	0	0	1	414.984	-0.298475	-0.298708	-0.00454633	2	-1.21705e-05	1.35803e-06
2	0	0	1	1	414.991	-0.301774	-0.301994	-0.00460267	2	-1.22008e-05	1.38998e-06
2	0	0	0	1	414.997	-0.305073	-0.305292	-0.00465921	2	-1.22314e-05	1.42242e-06
2	0	0	0	1	415.004	-0.308472	-0.308688	-0.00472299	2	-1.22635e-05	1.45793e-06
2	0	0	1	1	415.011	-0.31177	-0.311991	-0.00477978	2	-1.22949e-05	1.49125e-06
2	0	0	0	1	415.017	-0.315069	-0.315287	-0.00483519	2	-1.23268e-05	1.52447e-06
2	0	0	0	1	415.024	-0.318468	-0.318677	-0.00489538	2	-1.236e-05	1.56005e-06
2	0	0	1	1	415.031	-0.321766	-0.321965	-0.00495221	2	-1.23926e-05	1.59444e-06
2	0	0	0	1	415.037	-0.325065	-0.325255	-0.00500698	2	-1.24255e-05	1.62854e-06
2	0	0	0	1	415.044	-0.328464	-0.328667	-0.00506568	2	-1.24599e-05	1.66492e-06
2	0	0	1	1	415.051	-0.331763	-0.331973	-0.00512192	2	-1.24936e-05	1.70034e-06
2	0	0	0	1	415.057	-0.335061	-0.335267	-0.0051754	2	-1.25277e-05	1.73514e-06
2	0	0	0	1	415.064	-0.33846	-0.338672	-0.00523237	2	-1.25632e-05	1.77206e-06
2	0	0	1	1	415.071	-0.34177	-0.342024	-0.00529073	2	-1.25981e-05	1.80956e-06
2	0	0	0	1	415.077	-0.345091	-0.345334	-0.00534304	2	-1.26333e-05	1.84513e-06
2	0	0	1	1	415.084	-0.34839	-0.348618	-0.00539259	2	-1.26688e-05	1.87996e-06
2	0	0	1	1	415.091	-0.351788	-0.352015	-0.00544621	2	-1.27058e-05	1.91715e-06
2	0	0	0	1	415.097	-0.355087	-0.355336	-0.00549725	2	-1.2742e-05	1.95337e-06
2	0	0	1	1	415.104	-0.358386	-0.358609	-0.00554806	2	-1.27785e-05	1.98959e-06
2	0	0	1	1	415.111	-0.361785	-0.362017	-0.00559622	2	-1.28165e-05	2.02593e-06
2	0	0	0	1	415.117	-0.365083	-0.3653	-0.00564754	2	-1.28538e-05	2.06305e-06
2	0	0	1	1	415.124	-0.368382	-0.368609	-0.00569611	2	-1.28913e-05	2.09964e-06
2	0	0	1	1	415.131	-0.371781	-0.372018	-0.00575253	2	-1.29303e-05	2.14005e-06
2	0	0	0	1	415.137	-0.375079	-0.375317	-0.00580325	2	-1.29686e-05	2.17806e-06
2	0	0	1	1	415.144	-0.378378	-0.378601	-0.00585069	2	-1.30072e-05	2.21508e-06
2	0	0	1	1	415.151	-0.381777	-0.38202	-0.00590755	2	-1.30472e-05	2.25681e-06
2	0	0	0	1	415.157	-0.385076	-0.385333	-0.00595935	2	-1.30865e-05	2.29634e-06
2	0	0	1	1	415.164	-0.388374	-0.388617	-0.00600778	2	-1.31261e-05	2.33472e-06
2	0	0	1	1	415.171	-0.391773	-0.39202	-0.0060639	2	-1.31673e-05	2.37717e-06
2	0	0	0	1	415.177	-0.395072	-0.39533	-0.00611726	2	-1.32076e-05	2.41834e-06
2	0	0	1	1	415.184	-0.398371	-0.39864	-0.00616927	2	-1.32482e-05	2.45932e-06
2	0	0	1	1	415.191	-0.401769	-0.402026	-0.00622459	2	-1.32905e-05	2.50245e-06
2	0	0	0	1	415.197	-0.405068	-0.405332	-0.00627955	2	-1.33319e-05	2.5453e-06
2	0	0	1	1	415.204	-0.408367	-0.408599	-0.00633151	2	-1.33736e-05	2.58705e-06
2	0	0	1	1	415.211	-0.411765	-0.41201	-0.00639194	2	-1.3417e-05	2.63354e-06
2	0	0	0	1	415.217	-0.415064	-0.415311	-0.00645063	2	-1.34595e-05	2.67902e-06
2	0	0	1	1	415.224	-0.418363	-0.418614	-0.00651111	2	-1.35023e-05	2.72564e-06
2	0	0	1	1	415.231	-0.421762	-0.422009	-0.0065728	2	-1.35469e-05	2.77378e-06
2	0	0	0	1	415.237	-0.42506	-0.425314	-0.00663311	2	-1.35906e-05	2.82116e-06
2	0	0	1	1	415.244	-0.428359	-0.428578	-0.0066932	2	-1.36347e-05	2.86856e-06
2	0	0	1	1	415.25	-0.431736	-0.431965	-0.00676053	2	-1.36799e-05	2.92032e-06
2	0	0	0	1	415.257	-0.43509	-0.435331	-0.00682863	2	-1.37255e-05	2.97271e-06
2	0	0	1	1	415.264	-0.438389	-0.438626	-0.00689389	2	-1.37709e-05	3.02384e-06
2	0	0	0	1	415.27	-0.441687	-0.441934	-0.00695821	2	-1.38168e-05	3.07507e-06
2	0	0	0	1	415.277	-0.445086	-0.445324	-0.00703003	2	-1.38644e-05	3.13064e-06
2	0	0	1	1	415.284	-0.448385	-0.448612	-0.00710005	2	-1.39112e-05	3.18516e-06
2	0	0	0	1	415.29	-0.451684	-0.45191	-0.00717137	2	-1.39584e-05	3.24081e-06
2	0	0	0	1	415.297	-0.455082	-0.455283	-0.0072459	2	-1.40075e-05	3.29893e-06
2	0	0	1	1	415.304	-0.458381	-0.458603	-0.00732218	2	-1.40557e-05	3.35797e-06
2	0	0	0	1	415.31	-0.46168	-0.461926	-0.00739922	2	-1.41044e-05	3.41789e-06
2	0	0	0	1	415.317	-0.465078	-0.46531	-0.00747771	2	-1.41551e-05	3.47945e-06
2	0	0	1	1	415.324	-0.468377	-0.468652	-0.00755702	2	-1.42048e-05	3.54161e-06
2	0	0	0	1	415.33	-0.471676	-0.471947	-0.00763442	2	-1.42551e-05	3.60304e-06
2	0	0	0	1	415.337	-0.475075	-0.475303	-0.00771759	2	-1.43074e-05	3.6682e-06
2	0	0	1	1	415.344	-0.478373	-0.47862	-0.00780303	2	-1.43587e-05	3.73468e-06
2	0	0	0	1	415.35	-0.481672	-0.481919	-0.0078892	2	-1.44106e-05	3.80195e-06
2	0	0	0	1	415.357	-0.485071	-0.48531	-0.00797638	2	-1.44647e-05	3.87101e-06
2	0	0	1	1	415.364	-0.48837	-0.488622	-0.0080639	2	-1.45177e-05	3.9402e-06
2	0	0	0	1	415.37	-0.491668	-0.49192	-0.00815305	2	-1.45714e-05	4.01065e-06
2	0	0	0	1	415.377	-0.495067	-0.495305	-0.00824783	2	-1.46273e-05	4.0852e-06
2	0	0	1	1	415.384	-0.498366	-0.498607	-0.00834274	2	-1.46821e-05	4.15975e-06
2	0	0	0	1	415.39	-0.501665	-0.501917	-0.00843617	2	-1.47376e-05	4.23426e-06
2	0	0	0	1	415.397	-0.505063	-0.505308	-0.00853299	2	-1.47954e-05	4.31179e-06
2	0	0	1	1	415.404	-0.508362	-0.508616	-0.00863229	2	-1.48522e-05	4.39052e-06
2	0	0	0	1	415.41	-0.511661	-0.511911	-0.00872967	2	-1.49096e-05	4.46881e-06
2	0	0	0	1	415.417	-0.515059	-0.515317	-0.00883092	2	-1.49694e-05	4.55072e-06
2	0	0	1	1	415.424	-0.51838	-0.518636	-0.00893673	2	-1.50282e-05	4.63491e-06
2	0	0	0	1	415.43	-0.52169	-0.521949	-0.00904322	2	-1.50876e-05	4.72009e-06
2	0	0	1	1	415.437	-0.524989	-0.52524	-0.00914569	2	-1.51478e-05	4.80369e-06
2	0	0	1	1	415.444	-0.528388	-0.528627	-0.00925491	2	-1.52104e-05	4.89239e-06
2	0	0	0	1	415.45	-0.531686	-0.531937	-0.00936346	2	-1.5272e-05	4.98077e-06
2	0	0	1	1	415.457	-0.534985	-0.53523	-0.0094712	2	-1.53343e-05	5.06927e-06
2	0	0	1	1	415.464	-0.538384	-0.538613	-0.00959026	2	-1.53992e-05	5.16544e-06
2	0	0	0	1	415.47	-0.541683	-0.541928	-0.00970291	2	-1.5463e-05	5.25828e-06
2	0	0	1	1	415.477	-0.544981	-0.545223	-0.00982027	2	-1.55275e-05	5.35423e-06
2	0	0	1	1	415.484	-0.54838	-0.548622	-0.00994024	2	-1.55948e-05	5.45344e-06
2	0	0	0	1	415.49	-0.551679	-0.551936	-0.0100584	2	-1.56609e-05	5.55162e-06
2	0	0	1	1	415.497	-0.554978	-0.555239	-0.0101813	2	-1.57279e-05	5.65307e-06
2	0	0	1	1	415.519	-0.565887	-0.566119	-0.0105859	2	-1.59531e-05	5.99286e-06
2	0	0	0	1	415.54	-0.576669	-0.576867	-0.0109944	2	-1.61792e-05	6.34229e-06
2	0	0	1	1	415.547	-0.579968	-0.580175	-0.0111249	2	-1.62523e-05	6.45442e-06
2	0	0	1	1	415.554	-0.583367	-0.583571	-0.0112676	2	-1.63286e-05	6.57541e-06
2	0	0	0	1	415.56	-0.586665	-0.586886	-0.011407	2	-1.64036e-05	6.69458e-06
2	0	0	1	1	415.567	-0.589964	-0.590182	-0.0115457	2	-1.64795e-05	6.81405e-06
2	0	0	1	1	415.574	-0.593363	-0.593609	-0.011691	2	-1.65586e-05	6.93989e-06
2	0	0	0	1	415.58	-0.596662	-0.596875	-0.0118278	2	-1.66364e-05	7.05974e-06
2	0	0	1	1	415.585	-0.598961	-0.599169	-0.0119289	2	-1.66911e-05	7.14743e-06
2	0	0	1	1	415.587	-0.599827	-0.600035	-0.0119642	2	-1.67126e-05	7.17892e-06
2	0	0	0	1	415.587	-0.60016	-0.600359	-0.0120017	2	-1.6715e-05	7.20535e-06