File: TAP_Report/Data/Res_PB/100 uM RS 10mM PB_01_CV_C01_2.mpt
EC-Lab ASCII FILE
Nb header lines : 53

Cyclic Voltammetry

Run on channel : 1 (SN 0696)
User :
Electrode connection : standard
Ewe ctrl range : min = -10.00 V, max = 10.00 V
Ewe,I filtering : 50 kHz
Channel : Grounded
Acquisition started on : 05/17/2017 12:53:20
Saved on :
	File : 100 uM RS 10mM PB_01_CV_C01.mpr
	Directory : \\userfs\st659\w2k\EC-Lab\Data\ITO Characterisation 17-5-17\
	Host : 144.32.136.43
Device : SP-300 (SN 0182)
Address : USB
EC-Lab for windows v10.44 (software)
Internet server v10.44 (firmware)
Command interpretor v10.44 (firmware)
Electrode material :
Initial state :
Electrolyte :
Comments :
Cable : standard
Electrode surface area : 0.001 cm²
Characteristic mass : 0.001 g
Equivalent Weight : 0.000 g/eq.
Density : 0.000 g/cm3
Ei (V)              0.000
vs.                 Eoc
dE/dt               20.000
dE/dt unit          mV/s
E1 (V)              0.100
vs.                 Ref
Step percent        50
N                   10
E range min (V)     -10.000
E range max (V)     10.000
I Range             Auto
I Range min         Unset
I Range max         Unset
I Range init        Unset
Bandwidth           8
E2 (V)              -0.600
vs.                 Ref
nc cycles           2
Reverse Scan        1
Ef (V)              0.000
vs.                 Eoc

mode	ox/red	error	control changes	counter inc.	time/s	control/V	Ewe/V	<I>/mA	cycle number	(Q-Qo)/C	P/W
2	1	0	0	1	52.1308	-0.599827	-0.600035	-0.00894414	2	-0.000142366	5.36679e-06
2	1	0	0	1	52.2225	-0.597994	-0.598214	-0.00877249	2	-0.000143171	5.24783e-06
2	1	0	1	1	52.3891	-0.594662	-0.594903	-0.00852041	2	-0.000144608	5.06882e-06
2	1	0	0	1	52.5557	-0.59133	-0.591572	-0.00829581	2	-0.000146005	4.90757e-06
2	1	0	1	1	52.7223	-0.587998	-0.588213	-0.0080936	2	-0.000147367	4.76076e-06
2	1	0	0	1	52.8889	-0.584666	-0.584884	-0.00790376	2	-0.000148697	4.62278e-06
2	1	0	1	1	53.0555	-0.581334	-0.581546	-0.00772634	2	-0.000149996	4.49322e-06
2	1	0	0	1	53.2221	-0.578002	-0.578238	-0.00755807	2	-0.000151266	4.37036e-06
2	1	0	1	1	53.3887	-0.57467	-0.574878	-0.00739938	2	-0.000152509	4.25374e-06
2	1	0	0	1	53.5553	-0.571338	-0.571571	-0.00724632	2	-0.000153726	4.14179e-06
2	1	0	1	1	53.7219	-0.568006	-0.568213	-0.00710303	2	-0.000154918	4.03603e-06
2	1	0	0	1	53.8885	-0.564674	-0.564915	-0.0069636	2	-0.000156087	3.93385e-06
2	1	0	1	1	54.0551	-0.561342	-0.561553	-0.00683058	2	-0.000157233	3.83574e-06
2	1	0	0	1	54.2218	-0.558008	-0.558236	-0.00670288	2	-0.000158358	3.74179e-06
2	1	0	1	1	54.3884	-0.554676	-0.554902	-0.00657835	2	-0.000159461	3.65034e-06
2	1	0	0	1	54.555	-0.551344	-0.551555	-0.00645777	2	-0.000160544	3.56181e-06
2	1	0	1	1	54.7216	-0.548012	-0.548219	-0.00634196	2	-0.000161608	3.47678e-06
2	1	0	0	1	54.8882	-0.54468	-0.54489	-0.00623014	2	-0.000162652	3.39474e-06
2	1	0	1	1	55.0548	-0.541348	-0.541561	-0.00612211	2	-0.000163678	3.3155e-06
2	1	0	0	1	55.2214	-0.538016	-0.538217	-0.0060167	2	-0.000164687	3.23829e-06
2	1	0	1	1	55.388	-0.534684	-0.534903	-0.0059141	2	-0.000165678	3.16347e-06
2	1	0	0	1	55.5546	-0.531352	-0.531566	-0.00581346	2	-0.000166652	3.09024e-06
2	1	0	1	1	55.7212	-0.52802	-0.52824	-0.0057156	2	-0.00016761	3.01921e-06
2	1	0	0	1	55.8878	-0.524688	-0.524923	-0.00562095	2	-0.000168551	2.95056e-06
2	1	0	1	1	56.0544	-0.521356	-0.521578	-0.00552852	2	-0.000169477	2.88355e-06
2	1	0	0	1	56.221	-0.518024	-0.518254	-0.00543779	2	-0.000170388	2.81816e-06
2	1	0	1	1	56.3876	-0.514692	-0.514921	-0.00534987	2	-0.000171284	2.75476e-06
2	1	0	0	1	56.5542	-0.51136	-0.511591	-0.00526275	2	-0.000172165	2.69238e-06
2	1	0	1	1	56.7208	-0.508028	-0.508252	-0.00517956	2	-0.000173032	2.63253e-06
2	1	0	0	1	56.8874	-0.504696	-0.504925	-0.00509596	2	-0.000173886	2.57308e-06
2	1	0	1	1	57.054	-0.501364	-0.50159	-0.00501453	2	-0.000174725	2.51524e-06
2	1	0	0	1	57.2206	-0.498032	-0.498247	-0.00493457	2	-0.000175551	2.45863e-06
2	1	0	1	1	57.3872	-0.4947	-0.494917	-0.00485684	2	-0.000176364	2.40373e-06
2	1	0	0	1	57.5538	-0.491368	-0.491575	-0.00478021	2	-0.000177164	2.34983e-06
2	1	0	1	1	57.7204	-0.488036	-0.488258	-0.00470626	2	-0.000177952	2.29787e-06
2	1	0	0	1	57.887	-0.484704	-0.484915	-0.00463227	2	-0.000178727	2.24626e-06
2	1	0	1	1	58.0536	-0.481372	-0.481604	-0.00456044	2	-0.00017949	2.19632e-06
2	1	0	0	1	58.2202	-0.47804	-0.47826	-0.00448891	2	-0.000180241	2.14687e-06
2	1	0	1	1	58.3868	-0.474708	-0.474928	-0.00441937	2	-0.000180981	2.09888e-06
2	1	0	0	1	58.5534	-0.471377	-0.471616	-0.0043511	2	-0.000181709	2.05205e-06
2	1	0	1	1	58.72	-0.468044	-0.468263	-0.00428305	2	-0.000182425	2.00559e-06
2	1	0	0	1	58.8866	-0.464712	-0.464912	-0.00421593	2	-0.000183131	1.96004e-06
2	1	0	1	1	59.0532	-0.46138	-0.461585	-0.00415245	2	-0.000183825	1.91671e-06
2	1	0	0	1	59.2198	-0.458048	-0.458251	-0.00408875	2	-0.000184509	1.87367e-06
2	1	0	1	1	59.3864	-0.454716	-0.454902	-0.00402591	2	-0.000185182	1.83139e-06
2	1	0	0	1	59.553	-0.451384	-0.451577	-0.00396443	2	-0.000185845	1.79025e-06
2	1	0	1	1	59.7196	-0.448053	-0.448249	-0.0039032	2	-0.000186498	1.74961e-06
2	1	0	0	1	59.8862	-0.44472	-0.444939	-0.00384369	2	-0.000187141	1.71021e-06
2	1	0	1	1	60.0528	-0.441388	-0.441608	-0.00378557	2	-0.000187774	1.67174e-06
2	1	0	0	1	60.2194	-0.438056	-0.438248	-0.00372727	2	-0.000188397	1.63347e-06
2	1	0	1	1	60.386	-0.434724	-0.434905	-0.00366996	2	-0.000189011	1.59608e-06
2	1	0	0	1	60.5526	-0.431393	-0.431601	-0.00361399	2	-0.000189615	1.5598e-06
2	1	0	1	1	60.7192	-0.428061	-0.428261	-0.0035595	2	-0.00019021	1.5244e-06
2	1	0	0	1	60.8858	-0.424729	-0.424938	-0.00350573	2	-0.000190796	1.48972e-06
2	1	0	1	1	61.0524	-0.421396	-0.421604	-0.00345185	2	-0.000191373	1.45531e-06
2	1	0	0	1	61.219	-0.418064	-0.418294	-0.00339895	2	-0.000191941	1.42176e-06
2	1	0	1	1	61.3856	-0.414732	-0.414941	-0.0033467	2	-0.0001925	1.38868e-06
2	1	0	0	1	61.5522	-0.4114	-0.411625	-0.00329523	2	-0.000193051	1.3564e-06
2	1	0	1	1	61.7188	-0.408068	-0.408285	-0.00324463	2	-0.000193593	1.32474e-06
2	1	0	1	1	61.8855	-0.404734	-0.404948	-0.00319476	2	-0.000194128	1.29371e-06
2	1	0	0	1	62.0521	-0.401402	-0.401633	-0.00314587	2	-0.000194653	1.26349e-06
2	1	0	1	1	62.2187	-0.39807	-0.398307	-0.00309719	2	-0.000195171	1.23363e-06
2	1	0	0	1	62.3853	-0.394738	-0.394987	-0.00304952	2	-0.00019568	1.20452e-06
2	1	0	1	1	62.5519	-0.391406	-0.391642	-0.00300131	2	-0.000196182	1.17544e-06
2	1	0	0	1	62.7185	-0.388074	-0.388305	-0.00295418	2	-0.000196675	1.14712e-06
2	1	0	1	1	62.8851	-0.384742	-0.384981	-0.0029068	2	-0.000197161	1.11906e-06
2	1	0	0	1	63.0517	-0.38141	-0.381635	-0.00286113	2	-0.000197639	1.09191e-06
2	1	0	1	1	63.2183	-0.378078	-0.378283	-0.00281619	2	-0.000198109	1.06532e-06
2	1	0	0	1	63.3849	-0.374746	-0.374949	-0.00277071	2	-0.000198572	1.03887e-06
2	1	0	1	1	63.5515	-0.371414	-0.371609	-0.00272598	2	-0.000199028	1.013e-06
2	1	0	0	1	63.7181	-0.368082	-0.368292	-0.00268193	2	-0.000199475	9.87733e-07
2	1	0	1	1	63.8847	-0.36475	-0.364961	-0.00263806	2	-0.000199916	9.62789e-07
2	1	0	0	1	64.0513	-0.361418	-0.36164	-0.00259478	2	-0.000200349	9.38377e-07
2	1	0	1	1	64.2179	-0.358086	-0.358329	-0.00255114	2	-0.000200776	9.14147e-07
2	1	0	0	1	64.3845	-0.354754	-0.354993	-0.00250808	2	-0.000201195	8.90351e-07
2	1	0	1	1	64.5511	-0.351422	-0.351662	-0.0024653	2	-0.000201606	8.66952e-07
2	1	0	0	1	64.7177	-0.34809	-0.348297	-0.00242293	2	-0.000202011	8.43901e-07
2	1	0	1	1	64.8844	-0.344756	-0.344966	-0.00238099	2	-0.000202409	8.2136e-07
2	1	0	0	1	65.051	-0.341424	-0.341642	-0.00233979	2	-0.0002028	7.99373e-07
2	1	0	1	1	65.2176	-0.338092	-0.338284	-0.00229716	2	-0.000203183	7.77093e-07
2	1	0	0	1	65.3842	-0.33476	-0.334941	-0.0022561	2	-0.00020356	7.55663e-07
2	1	0	1	1	65.5508	-0.331428	-0.33161	-0.00221477	2	-0.00020393	7.34439e-07
2	1	0	0	1	65.7174	-0.328096	-0.328265	-0.0021737	2	-0.000204293	7.13552e-07
2	1	0	1	1	65.884	-0.324764	-0.32493	-0.00213258	2	-0.000204649	6.92939e-07
2	1	0	0	1	66.0506	-0.321432	-0.321596	-0.00209148	2	-0.000204999	6.72612e-07
2	1	0	1	1	66.2172	-0.3181	-0.318275	-0.0020513	2	-0.000205341	6.52877e-07
2	1	0	0	1	66.3838	-0.314768	-0.314948	-0.00201092	2	-0.000205677	6.33334e-07
2	1	0	1	1	66.5504	-0.311436	-0.311626	-0.00197066	2	-0.000206006	6.14111e-07
2	1	0	0	1	66.717	-0.308104	-0.308295	-0.00193047	2	-0.000206329	5.95154e-07
2	1	0	1	1	66.8836	-0.304772	-0.304963	-0.00189053	2	-0.000206645	5.76542e-07
2	1	0	0	1	67.0502	-0.30144	-0.30163	-0.00185125	2	-0.000206954	5.58392e-07
2	1	0	1	1	67.2168	-0.298108	-0.298305	-0.00181221	2	-0.000207257	5.40591e-07
2	1	0	0	1	67.3834	-0.294776	-0.294937	-0.00177323	2	-0.000207553	5.22993e-07
2	1	0	1	1	67.55	-0.291444	-0.291598	-0.0017346	2	-0.000207843	5.05807e-07
2	1	0	0	1	67.7166	-0.288112	-0.288289	-0.00169666	2	-0.000208126	4.89127e-07
2	1	0	1	1	67.8832	-0.28478	-0.284961	-0.00165873	2	-0.000208403	4.72672e-07
2	1	0	0	1	68.0498	-0.281448	-0.28163	-0.0016217	2	-0.000208674	4.5672e-07
2	1	0	1	1	68.2164	-0.278116	-0.278268	-0.00158467	2	-0.000208938	4.40962e-07
2	1	0	0	1	68.383	-0.274784	-0.274969	-0.00154877	2	-0.000209197	4.25865e-07
2	1	0	1	1	68.5496	-0.271452	-0.271628	-0.00151284	2	-0.00020945	4.1093e-07
2	1	0	0	1	68.7162	-0.26812	-0.268303	-0.0014779	2	-0.000209696	3.96524e-07
2	1	0	1	1	68.8828	-0.264788	-0.264989	-0.00144312	2	-0.000209937	3.8241e-07
2	1	0	0	1	69.0494	-0.261456	-0.261635	-0.00140939	2	-0.000210172	3.68747e-07
2	1	0	1	1	69.216	-0.258124	-0.258313	-0.00137712	2	-0.000210402	3.55728e-07
2	1	0	0	1	69.3826	-0.254792	-0.254983	-0.0013459	2	-0.000210626	3.43183e-07
2	1	0	1	1	69.5492	-0.25146	-0.251679	-0.00131474	2	-0.000210846	3.30893e-07
2	1	0	0	1	69.7158	-0.248128	-0.24834	-0.00128473	2	-0.00021106	3.1905e-07
2	1	0	1	1	69.8824	-0.244796	-0.244998	-0.00125553	2	-0.000211269	3.07601e-07
2	1	0	0	1	70.049	-0.241464	-0.241653	-0.00122803	2	-0.000211473	2.96757e-07
2	1	0	1	1	70.2156	-0.238132	-0.23833	-0.00120187	2	-0.000211673	2.86441e-07
2	1	0	0	1	70.3822	-0.2348	-0.235005	-0.00117696	2	-0.000211869	2.76593e-07
2	1	0	1	1	70.5488	-0.231468	-0.231659	-0.00115315	2	-0.000212061	2.67138e-07
2	1	0	0	1	70.7154	-0.228136	-0.228332	-0.00113055	2	-0.000212249	2.5814e-07
2	1	0	1	1	70.882	-0.224804	-0.225006	-0.00110888	2	-0.000212433	2.49504e-07
2	1	0	0	1	71.0486	-0.221472	-0.221675	-0.00108864	2	-0.000212613	2.41324e-07
2	1	0	1	1	71.2152	-0.21814	-0.218339	-0.00106986	2	-0.000212791	2.33592e-07
2	1	0	0	1	71.3818	-0.214809	-0.214994	-0.00105182	2	-0.000212965	2.26135e-07
2	1	0	1	1	71.5484	-0.211477	-0.211654	-0.00103488	2	-0.000213137	2.19037e-07
2	1	0	0	1	71.715	-0.208144	-0.208296	-0.0010192	2	-0.000213305	2.12296e-07
2	1	0	1	1	71.8816	-0.204812	-0.204983	-0.00100423	2	-0.000213471	2.05849e-07
2	1	0	0	1	72.0482	-0.20148	-0.201652	-0.000989789	2	-0.000213635	1.99593e-07
2	1	0	1	1	72.2148	-0.198148	-0.1983	-0.000975929	2	-0.000213797	1.93527e-07
2	1	0	0	1	72.3814	-0.194816	-0.194969	-0.000963593	2	-0.000213956	1.87871e-07
2	1	0	0	1	72.5481	-0.191482	-0.191643	-0.000951481	2	-0.000214113	1.82345e-07
2	1	0	1	1	72.7147	-0.18815	-0.188346	-0.000939455	2	-0.000214268	1.76942e-07
2	1	0	0	1	72.8813	-0.184818	-0.185006	-0.00092824	2	-0.000214421	1.7173e-07
2	1	0	1	1	73.0479	-0.181486	-0.181669	-0.000917512	2	-0.000214573	1.66684e-07
2	1	0	0	1	73.2145	-0.178154	-0.178328	-0.000906987	2	-0.000214723	1.61741e-07
2	1	0	1	1	73.3811	-0.174822	-0.175003	-0.000897065	2	-0.000214871	1.56989e-07
2	1	0	0	1	73.5477	-0.17149	-0.171669	-0.000887352	2	-0.000215017	1.52331e-07
2	1	0	1	1	73.7143	-0.168158	-0.16833	-0.000877128	2	-0.000215161	1.47647e-07
2	1	0	0	1	73.8809	-0.164826	-0.165003	-0.000868314	2	-0.000215305	1.43274e-07
2	1	0	1	1	74.0475	-0.161494	-0.161657	-0.000859731	2	-0.000215446	1.38981e-07
2	1	0	0	1	74.2141	-0.158162	-0.158319	-0.000851282	2	-0.000215586	1.34774e-07
2	1	0	1	1	74.3807	-0.15483	-0.154987	-0.000842679	2	-0.000215725	1.30604e-07
2	1	0	0	1	74.5473	-0.151498	-0.151664	-0.000834745	2	-0.000215863	1.26601e-07
2	1	0	1	1	74.7139	-0.148166	-0.148321	-0.000826689	2	-0.000215999	1.22615e-07
2	1	0	0	1	74.8805	-0.144834	-0.144991	-0.000818861	2	-0.000216133	1.18727e-07
2	1	0	1	1	75.0471	-0.141502	-0.141676	-0.00081106	2	-0.000216267	1.14908e-07
2	1	0	0	1	75.2137	-0.13817	-0.138337	-0.000803322	2	-0.000216399	1.11129e-07
2	1	0	1	1	75.3803	-0.134838	-0.13499	-0.000795505	2	-0.00021653	1.07385e-07
2	1	0	0	1	75.547	-0.131504	-0.131669	-0.000788012	2	-0.000216659	1.03757e-07
2	1	0	1	1	75.7136	-0.128172	-0.128347	-0.000780534	2	-0.000216788	1.00179e-07
2	1	0	0	1	75.8802	-0.12484	-0.124979	-0.000773309	2	-0.000216915	9.66472e-08
2	1	0	1	1	76.0468	-0.121508	-0.121656	-0.0007663	2	-0.000217041	9.32249e-08
2	1	0	0	1	76.2134	-0.118176	-0.11833	-0.000758919	2	-0.000217166	8.9803e-08
2	1	0	1	1	76.38	-0.114844	-0.114968	-0.000751952	2	-0.000217289	8.64502e-08
2	1	0	0	1	76.5466	-0.111512	-0.111638	-0.000745112	2	-0.000217412	8.31829e-08
2	1	0	1	1	76.7132	-0.10818	-0.108342	-0.000737939	2	-0.000217533	7.995e-08
2	1	0	0	1	76.8798	-0.104848	-0.105001	-0.000731506	2	-0.000217653	7.6809e-08
2	1	0	1	1	77.0464	-0.101516	-0.101664	-0.000724999	2	-0.000217772	7.37064e-08
2	1	0	0	1	77.213	-0.0981841	-0.0983382	-0.000718357	2	-0.00021789	7.06419e-08
2	1	0	1	1	77.3796	-0.0948521	-0.0950101	-0.00071184	2	-0.000218007	6.7632e-08
2	1	0	0	1	77.5462	-0.09152	-0.0916755	-0.000705483	2	-0.000218122	6.46755e-08
2	1	0	1	1	77.7128	-0.0881884	-0.0883432	-0.000699294	2	-0.000218237	6.17778e-08
2	1	0	0	1	77.8794	-0.0848563	-0.0850383	-0.000693093	2	-0.000218351	5.89394e-08
2	1	0	1	1	78.046	-0.0815242	-0.0817174	-0.000686628	2	-0.000218463	5.61095e-08
2	1	0	0	1	78.2126	-0.0781922	-0.0783779	-0.000680129	2	-0.000218575	5.3307e-08
2	1	0	1	1	78.3792	-0.0748601	-0.0750462	-0.000673983	2	-0.000218686	5.05798e-08
2	1	0	0	1	78.5458	-0.0715281	-0.0717081	-0.000667612	2	-0.000218795	4.78732e-08
2	1	0	1	1	78.7124	-0.0681965	-0.0683841	-0.00066154	2	-0.000218903	4.52388e-08
2	1	0	0	1	78.879	-0.0648644	-0.0650527	-0.000655001	2	-0.000219011	4.26096e-08
2	1	0	1	1	79.0456	-0.0615323	-0.061716	-0.000648349	2	-0.000219117	4.00135e-08
2	1	0	0	1	79.2122	-0.0582003	-0.0583722	-0.000642185	2	-0.000219222	3.74858e-08
2	1	0	1	1	79.3788	-0.0548682	-0.0550543	-0.000636711	2	-0.000219327	3.50537e-08
2	1	0	0	1	79.5454	-0.0515361	-0.0517362	-0.000630684	2	-0.00021943	3.26292e-08
2	1	0	1	1	79.712	-0.0482041	-0.0483703	-0.000624902	2	-0.000219532	3.02267e-08
2	1	0	0	1	79.8786	-0.0448725	-0.0450793	-0.00061886	2	-0.000219633	2.78978e-08
2	1	0	1	1	80.0452	-0.0415404	-0.0417154	-0.000612734	2	-0.000219734	2.55605e-08
2	1	0	0	1	80.2118	-0.0382083	-0.0383604	-0.000606729	2	-0.000219833	2.32744e-08
2	1	0	1	1	80.3784	-0.0348763	-0.0350274	-0.000601024	2	-0.000219931	2.10523e-08
2	1	0	0	1	80.545	-0.0315442	-0.0317031	-0.000594918	2	-0.000220029	1.88608e-08
2	1	0	1	1	80.7116	-0.0282121	-0.0283664	-0.000589011	2	-0.000220125	1.67081e-08
2	1	0	0	1	80.8782	-0.0248805	-0.0250493	-0.000583382	2	-0.00022022	1.46133e-08
2	1	0	1	1	81.0448	-0.0215485	-0.0217053	-0.000577577	2	-0.000220315	1.25365e-08
2	1	0	0	1	81.2114	-0.0182164	-0.018392	-0.000571963	2	-0.000220408	1.05196e-08
2	1	0	1	1	81.378	-0.0148843	-0.0150493	-0.000566229	2	-0.000220501	8.52137e-09
2	1	0	0	1	81.5446	-0.0115523	-0.0117223	-0.000560341	2	-0.000220592	6.56849e-09
2	1	0	1	1	81.7112	-0.0082202	-0.0083842	-0.000554443	2	-0.000220683	4.64856e-09
2	1	0	0	1	81.8778	-0.00488858	-0.00506964	-0.000549067	2	-0.000220772	2.78357e-09
2	1	0	1	1	82.0444	-0.00155035	-0.00172125	-0.000543332	2	-0.000220861	9.35213e-10
2	1	0	0	1	82.211	0.00177554	0.00161388	-0.000537573	2	-0.000220949	8.6758e-10
2	1	0	1	1	82.3776	0.0051076	0.00497434	-0.000531082	2	-0.000221036	2.64178e-09
2	1	0	0	1	82.5442	0.00843966	0.0083008	-0.000526134	2	-0.000221121	4.36733e-09
2	1	0	1	1	82.7108	0.0117717	0.0116323	-0.000520858	2	-0.000221206	6.05877e-09
2	1	0	0	1	82.8774	0.0151038	0.0149714	-0.000515264	2	-0.00022129	7.71422e-09
2	1	0	0	1	83.0441	0.0184376	0.0183116	-0.000509733	2	-0.000221374	9.33403e-09
2	1	0	1	1	83.2107	0.0217697	0.021647	-0.000504479	2	-0.000221456	1.09204e-08
2	1	0	0	1	83.3773	0.0251017	0.0249743	-0.000498761	2	-0.000221537	1.24562e-08
2	1	0	1	1	83.5689	0.0289332	0.0287716	-0.000493879	2	-0.00022163	1.42097e-08
2	1	0	1	1	83.7604	0.0327637	0.0326039	-0.00048768	2	-0.000221721	1.59003e-08
2	1	0	0	1	83.927	0.0360958	0.0359685	-0.000482236	2	-0.0002218	1.73453e-08
2	1	0	1	1	84.0936	0.0394278	0.0393021	-0.000475831	2	-0.000221878	1.87012e-08
2	1	0	1	1	84.2603	0.0427617	0.0426163	-0.000470293	2	-0.000221954	2.00422e-08
2	1	0	0	1	84.4269	0.0460937	0.0459849	-0.000464603	2	-0.00022203	2.13647e-08
2	1	0	1	1	84.5935	0.0494258	0.0493023	-0.000459726	2	-0.000222105	2.26656e-08
2	1	0	0	1	84.7601	0.0527579	0.0526336	-0.000454145	2	-0.000222179	2.39033e-08
2	1	0	1	1	84.9267	0.0560899	0.055978	-0.000448632	2	-0.000222252	2.51136e-08
2	1	0	0	1	85.0933	0.059422	0.0593134	-0.000443257	2	-0.000222324	2.62911e-08
2	1	0	1	1	85.2599	0.0627536	0.0626317	-0.00043756	2	-0.000222395	2.74051e-08
2	1	0	0	1	85.4265	0.0660857	0.0659447	-0.000432187	2	-0.000222465	2.85005e-08
2	1	0	1	1	85.5931	0.0694177	0.0692798	-0.000426336	2	-0.000222535	2.95365e-08
2	1	0	0	1	85.7597	0.0727498	0.0726037	-0.000420814	2	-0.000222603	3.05527e-08
2	1	0	1	1	85.9263	0.0760818	0.0759333	-0.000415011	2	-0.00022267	3.15132e-08
2	1	0	0	1	86.0929	0.0794139	0.0792787	-0.000409201	2	-0.000222737	3.24409e-08
2	1	0	1	1	86.2595	0.0827455	0.0825892	-0.000403374	2	-0.000222802	3.33144e-08
2	1	0	0	1	86.4261	0.0860776	0.0859103	-0.000397818	2	-0.000222867	3.41767e-08
2	1	0	1	1	86.5927	0.0894096	0.0892505	-0.000391758	2	-0.00022293	3.49646e-08
2	1	0	0	1	86.7593	0.0927417	0.0925883	-0.000386102	2	-0.000222993	3.57486e-08
2	1	0	1	1	86.9259	0.0960738	0.0959186	-0.000380312	2	-0.000223055	3.6479e-08
2	1	0	0	1	87.0592	0.0987399	0.0985956	-0.000375141	2	-0.000223103	3.69872e-08
2	0	0	0	1	87.118	0.0999061	0.0997917	-0.000373608	2	-0.000223125	3.7283e-08
2	0	0	1	1	87.2096	0.098073	0.0979333	-0.000430413	2	-0.000223165	4.21518e-08
2	0	0	0	1	87.3762	0.0947409	0.0945895	-0.00046679	2	-0.000223242	4.41534e-08
2	0	0	1	1	87.5428	0.0914089	0.0912689	-0.000496018	2	-0.000223324	4.5271e-08
2	0	0	0	1	87.7094	0.0880768	0.0879314	-0.000521801	2	-0.000223411	4.58827e-08
2	0	0	1	1	87.876	0.0847448	0.0845887	-0.000545143	2	-0.000223503	4.6113e-08
2	0	0	0	1	88.0426	0.0814131	0.0812555	-0.000567746	2	-0.000223598	4.61325e-08
2	0	0	1	1	88.2092	0.0780811	0.0779334	-0.00058855	2	-0.000223696	4.58677e-08
2	0	0	0	1	88.3758	0.074749	0.0745989	-0.000607873	2	-0.000223798	4.53467e-08
2	0	0	1	1	88.5424	0.071417	0.0712534	-0.000625974	2	-0.000223903	4.46028e-08
2	0	0	0	1	88.709	0.0680849	0.0679468	-0.000643672	2	-0.000224011	4.37354e-08
2	0	0	1	1	88.8756	0.0647528	0.064607	-0.000660008	2	-0.000224122	4.26411e-08
2	0	0	0	1	89.0422	0.0614208	0.0613013	-0.000675718	2	-0.000224235	4.14224e-08
2	0	0	1	1	89.2088	0.0580892	0.0579727	-0.000690818	2	-0.000224352	4.00486e-08
2	0	0	0	1	89.3754	0.0547571	0.0546202	-0.000705589	2	-0.00022447	3.85394e-08
2	0	0	1	1	89.542	0.051425	0.0512881	-0.000719282	2	-0.000224591	3.68906e-08
2	0	0	0	1	89.7086	0.048093	0.0479712	-0.000732724	2	-0.000224714	3.51497e-08
2	0	0	1	1	89.8752	0.0447609	0.0446134	-0.000746138	2	-0.00022484	3.32878e-08
2	0	0	0	1	90.0418	0.0414288	0.0412442	-0.000758411	2	-0.000224967	3.128e-08
2	0	0	1	1	90.2084	0.0380972	0.0379333	-0.000770193	2	-0.000225097	2.9216e-08
2	0	0	0	1	90.375	0.0347652	0.0345963	-0.000782178	2	-0.000225228	2.70604e-08
2	0	0	1	1	90.5416	0.0314331	0.0312758	-0.000793333	2	-0.000225362	2.48121e-08
2	0	0	0	1	90.7082	0.028101	0.0279295	-0.000803934	2	-0.000225497	2.24535e-08
2	0	0	1	1	90.8748	0.024769	0.0245904	-0.000814188	2	-0.000225634	2.00212e-08
2	0	0	0	1	91.0414	0.0214369	0.0212779	-0.000825077	2	-0.000225773	1.75559e-08
2	0	0	1	1	91.208	0.0181049	0.0179429	-0.000835581	2	-0.000225913	1.49927e-08
2	0	0	0	1	91.3746	0.0147732	0.0146271	-0.000845608	2	-0.000226056	1.23688e-08
2	0	0	1	1	91.5412	0.0114412	0.0112695	-0.000855397	2	-0.0002262	9.63992e-09
2	0	0	0	1	91.7078	0.00810912	0.00792743	-0.00086484	2	-0.000226345	6.85595e-09
2	0	0	1	1	91.8744	0.00477706	0.00460462	-0.000873868	2	-0.000226492	4.02383e-09
2	0	0	0	1	92.041	0.001445	0.00124494	-0.000883211	2	-0.000226641	1.09955e-09
2	0	0	1	1	92.2076	-0.00188706	-0.00208675	-0.000891743	2	-0.000226791	1.86084e-09
2	0	0	0	1	92.3742	-0.00521913	-0.00540067	-0.000900135	2	-0.000226942	4.86133e-09
2	0	0	0	1	92.5409	-0.00855297	-0.00874348	-0.000908587	2	-0.000227095	7.94421e-09
2	0	0	1	1	92.7075	-0.011885	-0.0120841	-0.00091696	2	-0.00022725	1.10806e-08
2	0	0	0	1	92.8741	-0.0152171	-0.0154079	-0.000924738	2	-0.000227405	1.42483e-08
2	0	0	1	1	93.0407	-0.0185492	-0.0187456	-0.000932746	2	-0.000227562	1.74849e-08
2	0	0	0	1	93.2073	-0.0218812	-0.0220663	-0.000940263	2	-0.00022772	2.07481e-08
2	0	0	1	1	93.3739	-0.0252133	-0.025403	-0.000947793	2	-0.00022788	2.40768e-08
2	0	0	0	1	93.5405	-0.0285449	-0.0287333	-0.000955531	2	-0.000228041	2.74555e-08
2	0	0	1	1	93.7071	-0.031877	-0.0320696	-0.000963018	2	-0.000228203	3.08836e-08
2	0	0	0	1	93.8737	-0.035209	-0.0353907	-0.000970049	2	-0.000228366	3.43307e-08
2	0	0	1	1	94.0403	-0.0385411	-0.0387169	-0.000977451	2	-0.00022853	3.78438e-08
2	0	0	0	1	94.2236	-0.0422074	-0.0423743	-0.000983435	2	-0.000228713	4.16723e-08
2	0	0	1	1	94.4068	-0.0458712	-0.0460484	-0.000990181	2	-0.000228897	4.55963e-08
2	0	0	0	1	94.5734	-0.0492028	-0.0493903	-0.000997368	2	-0.000229065	4.92603e-08
2	0	0	1	1	94.74	-0.0525349	-0.0527073	-0.00100434	2	-0.000229234	5.29358e-08
2	0	0	0	1	94.9066	-0.0558669	-0.0560649	-0.0010111	2	-0.000229404	5.66871e-08
2	0	0	1	1	95.0732	-0.059199	-0.0593684	-0.00101785	2	-0.000229575	6.04284e-08
2	0	0	0	1	95.2398	-0.0625311	-0.0626923	-0.00102437	2	-0.000229748	6.42204e-08
2	0	0	1	1	95.4064	-0.0658631	-0.0660202	-0.00103089	2	-0.000229921	6.80598e-08
2	0	0	0	1	95.573	-0.0691947	-0.0693563	-0.00103735	2	-0.000230096	7.19465e-08
2	0	0	1	1	95.7396	-0.0725268	-0.0726853	-0.00104426	2	-0.000230272	7.59027e-08
2	0	0	0	1	95.9062	-0.0758589	-0.0760381	-0.00105052	2	-0.000230448	7.98798e-08
2	0	0	1	1	96.0728	-0.0791909	-0.079365	-0.0010571	2	-0.000230626	8.3897e-08
2	0	0	0	1	96.2394	-0.082523	-0.0826889	-0.00106338	2	-0.000230805	8.79301e-08
2	0	0	1	1	96.406	-0.085855	-0.086025	-0.00106989	2	-0.000230985	9.20375e-08
2	0	0	0	1	96.5726	-0.0891871	-0.0893334	-0.00107629	2	-0.000231166	9.6149e-08
2	0	0	0	1	96.7393	-0.0925209	-0.0926577	-0.00108274	2	-0.000231349	1.00325e-07
2	0	0	1	1	96.9059	-0.095853	-0.0960062	-0.00108915	2	-0.000231532	1.04565e-07
2	0	0	0	1	97.0725	-0.0991851	-0.0993394	-0.00109573	2	-0.000231716	1.08849e-07
2	0	0	1	1	97.2391	-0.102517	-0.102666	-0.00110222	2	-0.000231902	1.1316e-07
2	0	0	0	1	97.4057	-0.105849	-0.105999	-0.00110765	2	-0.000232088	1.1741e-07
2	0	0	1	1	97.5723	-0.109181	-0.109326	-0.001115	2	-0.000232275	1.21898e-07
2	0	0	0	1	97.7389	-0.112513	-0.112661	-0.00112145	2	-0.000232464	1.26343e-07
2	0	0	1	1	97.9055	-0.115845	-0.115997	-0.00112848	2	-0.000232654	1.30901e-07
2	0	0	0	1	98.0721	-0.119177	-0.11933	-0.00113514	2	-0.000232845	1.35457e-07
2	0	0	1	1	98.2387	-0.122509	-0.122648	-0.00114164	2	-0.000233037	1.4002e-07
2	0	0	0	1	98.4053	-0.125841	-0.125988	-0.00114896	2	-0.00023323	1.44755e-07
2	0	0	1	1	98.5719	-0.129173	-0.129353	-0.00115575	2	-0.000233424	1.49499e-07
2	0	0	0	1	98.7385	-0.132505	-0.132673	-0.0011624	2	-0.000233619	1.54219e-07
2	0	0	1	1	98.9051	-0.135837	-0.135997	-0.00116937	2	-0.000233816	1.59031e-07
2	0	0	0	1	99.0717	-0.139169	-0.139348	-0.00117662	2	-0.000234014	1.63959e-07
2	0	0	1	1	99.2383	-0.142501	-0.142696	-0.00118375	2	-0.000234213	1.68917e-07
2	0	0	0	1	99.4049	-0.145833	-0.146008	-0.001191	2	-0.000234413	1.73895e-07
2	0	0	1	1	99.5715	-0.149165	-0.149339	-0.00119835	2	-0.000234614	1.7896e-07
2	0	0	0	1	99.7382	-0.152499	-0.152668	-0.00120604	2	-0.000234817	1.84124e-07
2	0	0	1	1	99.9048	-0.155831	-0.156004	-0.00121404	2	-0.000235021	1.89395e-07
2	0	0	0	1	100.071	-0.159163	-0.159333	-0.0012222	2	-0.000235226	1.94737e-07
2	0	0	1	1	100.238	-0.162495	-0.162675	-0.00123061	2	-0.000235433	2.0019e-07
2	0	0	0	1	100.405	-0.165827	-0.166018	-0.00123889	2	-0.000235641	2.05679e-07
2	0	0	1	1	100.571	-0.169159	-0.169358	-0.00124805	2	-0.00023585	2.11367e-07
2	0	0	0	1	100.738	-0.172491	-0.172667	-0.00125743	2	-0.000236061	2.17117e-07
2	0	0	1	1	100.904	-0.175823	-0.176018	-0.00126683	2	-0.000236274	2.22985e-07
2	0	0	0	1	101.071	-0.179155	-0.179334	-0.00127759	2	-0.000236488	2.29116e-07
2	0	0	1	1	101.238	-0.182487	-0.182685	-0.00128892	2	-0.000236704	2.35467e-07
2	0	0	0	1	101.404	-0.185819	-0.186	-0.00130051	2	-0.000236922	2.41895e-07
2	0	0	1	1	101.571	-0.189151	-0.189353	-0.00131326	2	-0.000237142	2.48669e-07
2	0	0	0	1	101.737	-0.192483	-0.192642	-0.00132624	2	-0.000237365	2.5549e-07
2	0	0	1	1	101.904	-0.195815	-0.195984	-0.00134075	2	-0.000237589	2.62766e-07
2	0	0	0	1	102.071	-0.199147	-0.199314	-0.00135651	2	-0.000237816	2.70371e-07
2	0	0	1	1	102.237	-0.202479	-0.202661	-0.00137271	2	-0.000238046	2.78196e-07
2	0	0	0	1	102.404	-0.205811	-0.205997	-0.00139072	2	-0.000238279	2.86485e-07
2	0	0	1	1	102.57	-0.209143	-0.209309	-0.00141088	2	-0.000238514	2.9531e-07
2	0	0	0	1	102.737	-0.212475	-0.212659	-0.0014326	2	-0.000238754	3.04656e-07
2	0	0	1	1	102.904	-0.215807	-0.21599	-0.00145542	2	-0.000238997	3.14355e-07
2	0	0	0	1	103.07	-0.219139	-0.219315	-0.00148004	2	-0.000239244	3.24596e-07
2	0	0	1	1	103.237	-0.222471	-0.222668	-0.00150701	2	-0.000239495	3.35562e-07
2	0	0	0	1	103.403	-0.225803	-0.226003	-0.0015356	2	-0.000239751	3.4705e-07
2	0	0	1	1	103.57	-0.229135	-0.229308	-0.0015663	2	-0.000240012	3.59163e-07
2	0	0	0	1	103.737	-0.232467	-0.232668	-0.0015992	2	-0.000240278	3.72082e-07
2	0	0	1	1	103.903	-0.235799	-0.235978	-0.00163429	2	-0.00024055	3.85658e-07
2	0	0	0	1	104.07	-0.239131	-0.239292	-0.00167116	2	-0.000240827	3.99896e-07
2	0	0	1	1	104.236	-0.242463	-0.242641	-0.0017112	2	-0.000241112	4.15207e-07
2	0	0	0	1	104.403	-0.245795	-0.245979	-0.00175314	2	-0.000241403	4.31235e-07
2	0	0	1	1	104.57	-0.249127	-0.24932	-0.001797	2	-0.000241701	4.48028e-07
2	0	0	0	1	104.736	-0.252459	-0.252651	-0.00184272	2	-0.000242007	4.65565e-07
2	0	0	1	1	104.903	-0.255791	-0.255968	-0.00189015	2	-0.00024232	4.83819e-07
2	0	0	0	1	105.069	-0.259123	-0.259295	-0.00193964	2	-0.000242642	5.02939e-07
2	0	0	1	1	105.236	-0.262455	-0.262621	-0.00199073	2	-0.000242972	5.22806e-07
2	0	0	0	1	105.403	-0.265787	-0.265968	-0.00204411	2	-0.00024331	5.43669e-07
2	0	0	1	1	105.569	-0.269119	-0.269302	-0.0020988	2	-0.000243658	5.65211e-07
2	0	0	0	1	105.736	-0.272451	-0.272627	-0.00215456	2	-0.000244015	5.87391e-07
2	0	0	1	1	105.902	-0.275783	-0.275954	-0.0022119	2	-0.000244381	6.1038e-07
2	0	0	0	1	106.069	-0.279115	-0.279285	-0.00227058	2	-0.000244757	6.3414e-07
2	0	0	1	1	106.236	-0.282447	-0.282601	-0.00232999	2	-0.000245143	6.58458e-07
2	0	0	0	1	106.402	-0.285779	-0.285934	-0.00239171	2	-0.000245539	6.83873e-07
2	0	0	1	1	106.569	-0.289111	-0.289283	-0.00245332	2	-0.000245945	7.09705e-07
2	0	0	0	1	106.735	-0.292443	-0.29261	-0.00251573	2	-0.000246362	7.36128e-07
2	0	0	1	1	106.902	-0.295775	-0.295972	-0.00257933	2	-0.000246789	7.6341e-07
2	0	0	0	1	107.069	-0.299107	-0.299304	-0.00264338	2	-0.000247226	7.91174e-07
2	0	0	1	1	107.235	-0.302439	-0.302627	-0.0027076	2	-0.000247675	8.19393e-07
2	0	0	1	1	107.402	-0.305773	-0.305947	-0.00277212	2	-0.000248134	8.48122e-07
2	0	0	0	1	107.568	-0.309105	-0.309301	-0.00283783	2	-0.000248604	8.77744e-07
2	0	0	1	1	107.735	-0.312437	-0.312645	-0.0029024	2	-0.000249085	9.07421e-07
2	0	0	0	1	107.902	-0.315769	-0.315965	-0.00296763	2	-0.000249576	9.37668e-07
2	0	0	1	1	108.068	-0.319101	-0.319286	-0.00303204	2	-0.000250079	9.68089e-07
2	0	0	0	1	108.235	-0.322433	-0.322618	-0.00309722	2	-0.000250592	9.99221e-07
2	0	0	1	1	108.401	-0.325765	-0.325944	-0.00316157	2	-0.000251116	1.03049e-06
2	0	0	0	1	108.568	-0.329097	-0.329295	-0.00322633	2	-0.000251651	1.06242e-06
2	0	0	1	1	108.735	-0.332429	-0.332609	-0.00329034	2	-0.000252196	1.0944e-06
2	0	0	0	1	108.901	-0.335761	-0.335941	-0.00335308	2	-0.000252752	1.12644e-06
2	0	0	1	1	109.068	-0.339093	-0.339293	-0.00341774	2	-0.000253319	1.15961e-06
2	0	0	0	1	109.234	-0.342425	-0.34265	-0.00348129	2	-0.000253896	1.19287e-06
2	0	0	1	1	109.401	-0.345757	-0.34598	-0.00354384	2	-0.000254484	1.22609e-06
2	0	0	0	1	109.568	-0.349089	-0.349309	-0.00360606	2	-0.000255082	1.25963e-06
2	0	0	1	1	109.734	-0.352421	-0.352649	-0.00366846	2	-0.000255691	1.29368e-06
2	0	0	0	1	109.901	-0.355753	-0.35598	-0.00372971	2	-0.00025631	1.3277e-06
2	0	0	1	1	110.067	-0.359085	-0.359305	-0.00379064	2	-0.000256939	1.362e-06
2	0	0	0	1	110.234	-0.362417	-0.362628	-0.00385076	2	-0.000257578	1.39639e-06
2	0	0	1	1	110.401	-0.365751	-0.365948	-0.00391074	2	-0.000258227	1.43113e-06
2	0	0	0	1	110.567	-0.369083	-0.369277	-0.00397093	2	-0.000258886	1.46637e-06
2	0	0	1	1	110.734	-0.372415	-0.37261	-0.00403045	2	-0.000259556	1.50178e-06
2	0	0	0	1	110.901	-0.375747	-0.375963	-0.00408996	2	-0.000260235	1.53767e-06
2	0	0	1	1	111.067	-0.379079	-0.379285	-0.00414887	2	-0.000260924	1.5736e-06
2	0	0	0	1	111.234	-0.382411	-0.382632	-0.00420799	2	-0.000261622	1.61011e-06
2	0	0	1	1	111.4	-0.385743	-0.385969	-0.00426665	2	-0.000262331	1.64679e-06
2	0	0	0	1	111.567	-0.389075	-0.389293	-0.0043254	2	-0.000263049	1.68385e-06
2	0	0	1	1	111.734	-0.392407	-0.392639	-0.00438412	2	-0.000263777	1.72138e-06
2	0	0	0	1	111.9	-0.395739	-0.395959	-0.00444254	2	-0.000264515	1.75907e-06
2	0	0	1	1	112.067	-0.399071	-0.399302	-0.00450078	2	-0.000265263	1.79717e-06
2	0	0	0	1	112.233	-0.402403	-0.40264	-0.00455997	2	-0.00026602	1.83603e-06
2	0	0	1	1	112.4	-0.405735	-0.405952	-0.00461768	2	-0.000266787	1.87455e-06
2	0	0	0	1	112.567	-0.409067	-0.409273	-0.00467633	2	-0.000267564	1.9139e-06
2	0	0	1	1	112.733	-0.412399	-0.412622	-0.00473479	2	-0.000268351	1.95368e-06
2	0	0	0	1	112.9	-0.415731	-0.415966	-0.00479389	2	-0.000269147	1.99409e-06
2	0	0	1	1	113.066	-0.419063	-0.419284	-0.0048551	2	-0.000269953	2.03567e-06
2	0	0	0	1	113.233	-0.422395	-0.422627	-0.00491465	2	-0.00027077	2.07706e-06
2	0	0	1	1	113.4	-0.425727	-0.42595	-0.00497342	2	-0.000271596	2.11843e-06
2	0	0	0	1	113.566	-0.429059	-0.429258	-0.00503333	2	-0.000272432	2.1606e-06
2	0	0	1	1	113.733	-0.432391	-0.432588	-0.00509215	2	-0.000273278	2.20281e-06
2	0	0	0	1	113.899	-0.435723	-0.435931	-0.00515277	2	-0.000274134	2.24625e-06
2	0	0	1	1	114.066	-0.439055	-0.439282	-0.00521396	2	-0.000275	2.2904e-06
2	0	0	0	1	114.233	-0.442387	-0.442599	-0.00527465	2	-0.000275876	2.33455e-06
2	0	0	1	1	114.399	-0.445719	-0.445942	-0.0053359	2	-0.000276763	2.3795e-06
2	0	0	0	1	114.566	-0.449051	-0.44925	-0.00539767	2	-0.00027766	2.4249e-06
2	0	0	1	1	114.732	-0.452383	-0.452582	-0.00545907	2	-0.000278567	2.47068e-06
2	0	0	0	1	114.899	-0.455715	-0.455924	-0.00552175	2	-0.000279484	2.5175e-06
2	0	0	1	1	115.066	-0.459047	-0.459258	-0.00558481	2	-0.000280412	2.56487e-06
2	0	0	0	1	115.232	-0.462379	-0.4626	-0.00564774	2	-0.00028135	2.61264e-06
2	0	0	1	1	115.399	-0.465711	-0.465916	-0.00571122	2	-0.000282299	2.66095e-06
2	0	0	0	1	115.565	-0.469043	-0.469263	-0.0057755	2	-0.000283258	2.71022e-06
2	0	0	1	1	115.732	-0.472375	-0.472603	-0.00583771	2	-0.000284228	2.75892e-06
2	0	0	0	1	115.899	-0.475707	-0.475934	-0.0059037	2	-0.000285209	2.80977e-06
2	0	0	1	1	116.065	-0.479039	-0.479265	-0.00596833	2	-0.000286201	2.86041e-06
2	0	0	0	1	116.232	-0.482371	-0.482599	-0.00603431	2	-0.000287203	2.91215e-06
2	0	0	1	1	116.398	-0.485703	-0.48593	-0.00609909	2	-0.000288217	2.96373e-06
2	0	0	0	1	116.565	-0.489035	-0.489264	-0.00616556	2	-0.000289241	3.01658e-06
2	0	0	1	1	116.732	-0.492367	-0.492571	-0.00623055	2	-0.000290276	3.06899e-06
2	0	0	0	1	116.898	-0.495699	-0.49592	-0.00629677	2	-0.000291322	3.12269e-06
2	0	0	1	1	117.065	-0.499031	-0.499259	-0.00636442	2	-0.000292379	3.17749e-06
2	0	0	0	1	117.231	-0.502363	-0.502605	-0.0064315	2	-0.000293448	3.2325e-06
2	0	0	1	1	117.398	-0.505695	-0.505922	-0.00649862	2	-0.000294528	3.2878e-06
2	0	0	0	1	117.565	-0.509027	-0.509273	-0.0065675	2	-0.000295619	3.34465e-06
2	0	0	1	1	117.731	-0.512359	-0.512605	-0.0066348	2	-0.000296721	3.40103e-06
2	0	0	1	1	117.898	-0.515693	-0.515908	-0.00670259	2	-0.000297835	3.45792e-06
2	0	0	0	1	118.064	-0.519025	-0.519244	-0.00677047	2	-0.00029896	3.51552e-06
2	0	0	1	1	118.231	-0.522357	-0.522585	-0.0068403	2	-0.000300097	3.57464e-06
2	0	0	0	1	118.398	-0.525689	-0.525915	-0.00691018	2	-0.000301245	3.63417e-06
2	0	0	1	1	118.564	-0.529021	-0.529249	-0.00697997	2	-0.000302405	3.69414e-06
2	0	0	0	1	118.731	-0.532353	-0.53257	-0.00704827	2	-0.000303576	3.7537e-06
2	0	0	1	1	118.897	-0.535685	-0.535907	-0.00711738	2	-0.000304758	3.81425e-06
2	0	0	0	1	119.064	-0.539017	-0.539224	-0.007187	2	-0.000305953	3.8754e-06
2	0	0	1	1	119.231	-0.542349	-0.542565	-0.00725575	2	-0.000307158	3.93672e-06
2	0	0	0	1	119.397	-0.545681	-0.54589	-0.00732683	2	-0.000308376	3.99964e-06
2	0	0	1	1	119.564	-0.549013	-0.549223	-0.00739716	2	-0.000309605	4.06269e-06
2	0	0	0	1	119.73	-0.552345	-0.552555	-0.00746888	2	-0.000310846	4.12696e-06
2	0	0	1	1	119.897	-0.555677	-0.555904	-0.00753761	2	-0.000312099	4.19019e-06
2	0	0	0	1	120.064	-0.559009	-0.559247	-0.00760968	2	-0.000313363	4.25569e-06
2	0	0	1	1	120.23	-0.562341	-0.562561	-0.0076815	2	-0.00031464	4.32131e-06
2	0	0	0	1	120.397	-0.565673	-0.565882	-0.00775216	2	-0.000315928	4.38681e-06
2	0	0	1	1	120.563	-0.569005	-0.569238	-0.00782283	2	-0.000317228	4.45305e-06
2	0	0	0	1	120.73	-0.572337	-0.572558	-0.00789615	2	-0.00031854	4.521e-06
2	0	0	1	1	120.897	-0.575669	-0.575888	-0.00796759	2	-0.000319864	4.58844e-06
2	0	0	0	1	121.063	-0.579003	-0.579218	-0.00804042	2	-0.000321201	4.65716e-06
2	0	0	1	1	121.23	-0.582335	-0.582541	-0.00811274	2	-0.00032255	4.726e-06
2	0	0	0	1	121.397	-0.585667	-0.58589	-0.00818645	2	-0.00032391	4.79636e-06
2	0	0	1	1	121.563	-0.588999	-0.589244	-0.00825931	2	-0.000325283	4.86675e-06
2	0	0	0	1	121.73	-0.592331	-0.592557	-0.00832934	2	-0.000326667	4.93561e-06
2	0	0	1	1	121.896	-0.595663	-0.595881	-0.0084027	2	-0.000328063	5.007e-06
2	0	0	0	1	122.046	-0.598661	-0.59887	-0.00846894	2	-0.00032933	5.0718e-06
2	0	0	1	1	122.105	-0.60016	-0.600317	-0.00854481	2	-0.000329828	5.1296e-06