File: TAP_Report/Data/Res_PB/100 uM RS 10mM PB_07_CV_C01_2.mpt
EC-Lab ASCII FILE
Nb header lines : 53

Cyclic Voltammetry

Run on channel : 1 (SN 0696)
User :
Electrode connection : standard
Ewe ctrl range : min = -10.00 V, max = 10.00 V
Ewe,I filtering : 50 kHz
Channel : Grounded
Acquisition started on : 05/17/2017 12:53:20
Saved on :
	File : 100 uM RS 10mM PB_07_CV_C01.mpr
	Directory : \\userfs\st659\w2k\EC-Lab\Data\ITO Characterisation 17-5-17\
	Host : 144.32.136.43
Device : SP-300 (SN 0182)
Address : USB
EC-Lab for windows v10.44 (software)
Internet server v10.44 (firmware)
Command interpretor v10.44 (firmware)
Electrode material :
Initial state :
Electrolyte :
Comments :
Cable : standard
Electrode surface area : 0.001 cm²
Characteristic mass : 0.001 g
Equivalent Weight : 0.000 g/eq.
Density : 0.000 g/cm3
Ei (V)              0.000
vs.                 Eoc
dE/dt               2500.000
dE/dt unit          mV/s
E1 (V)              0.100
vs.                 Ref
Step percent        50
N                   10
E range min (V)     -10.000
E range max (V)     10.000
I Range             Auto
I Range min         Unset
I Range max         Unset
I Range init        Unset
Bandwidth           8
E2 (V)              -0.600
vs.                 Ref
nc cycles           2
Reverse Scan        1
Ef (V)              0.000
vs.                 Eoc

mode	ox/red	error	control changes	counter inc.	time/s	control/V	Ewe/V	<I>/mA	cycle number	(Q-Qo)/C	P/W
2	1	0	1	1	425.978	-0.599494	-0.599737	-0.01809	2	-3.12317e-06	1.08493e-05
2	1	0	0	1	425.979	-0.596828	-0.597086	-0.017198	2	-3.14216e-06	1.02687e-05
2	1	0	0	1	425.981	-0.59183	-0.592091	-0.0157574	2	-3.17496e-06	9.32983e-06
2	1	0	0	1	425.983	-0.586832	-0.587105	-0.0145444	2	-3.20514e-06	8.53911e-06
2	1	0	0	1	425.985	-0.581834	-0.582078	-0.0134828	2	-3.23306e-06	7.84804e-06
2	1	0	0	1	425.987	-0.576836	-0.577095	-0.0125562	2	-3.259e-06	7.24612e-06
2	1	0	0	1	425.989	-0.571838	-0.572089	-0.0117271	2	-3.2832e-06	6.70894e-06
2	1	0	0	1	425.991	-0.56684	-0.56711	-0.0109795	2	-3.30583e-06	6.22659e-06
2	1	0	0	1	425.993	-0.561842	-0.562111	-0.0102978	2	-3.32703e-06	5.78851e-06
2	1	0	0	1	425.995	-0.556843	-0.557118	-0.009665	2	-3.34693e-06	5.38455e-06
2	1	0	0	1	425.997	-0.551845	-0.552097	-0.00907443	2	-3.36561e-06	5.00996e-06
2	1	0	0	1	425.999	-0.546847	-0.547098	-0.00853144	2	-3.38316e-06	4.66754e-06
2	1	0	0	1	426.001	-0.541849	-0.542095	-0.00802168	2	-3.39966e-06	4.34851e-06
2	1	0	0	1	426.003	-0.536851	-0.537082	-0.00754434	2	-3.41518e-06	4.05193e-06
2	1	0	0	1	426.005	-0.531853	-0.532103	-0.00709994	2	-3.42978e-06	3.7779e-06
2	1	0	0	1	426.007	-0.526855	-0.527106	-0.00666926	2	-3.4435e-06	3.51541e-06
2	1	0	0	1	426.009	-0.521857	-0.522103	-0.00627004	2	-3.4564e-06	3.27361e-06
2	1	0	0	1	426.011	-0.516859	-0.517105	-0.00588459	2	-3.46852e-06	3.04295e-06
2	1	0	0	1	426.013	-0.511861	-0.512119	-0.00552029	2	-3.47988e-06	2.82705e-06
2	1	0	0	1	426.015	-0.506863	-0.507119	-0.00516894	2	-3.49054e-06	2.62127e-06
2	1	0	0	1	426.017	-0.501864	-0.502124	-0.00483811	2	-3.50051e-06	2.42934e-06
2	1	0	0	1	426.019	-0.496866	-0.497115	-0.00451609	2	-3.50983e-06	2.24501e-06
2	1	0	0	1	426.021	-0.491868	-0.492112	-0.0042115	2	-3.51853e-06	2.07253e-06
2	1	0	0	1	426.023	-0.48687	-0.487122	-0.00391926	2	-3.52663e-06	1.90916e-06
2	1	0	0	1	426.025	-0.481872	-0.482118	-0.00363603	2	-3.53416e-06	1.753e-06
2	1	0	0	1	426.027	-0.476874	-0.477141	-0.00336479	2	-3.54113e-06	1.60548e-06
2	1	0	0	1	426.029	-0.471876	-0.472134	-0.00310224	2	-3.54757e-06	1.46467e-06
2	1	0	0	1	426.031	-0.466878	-0.46713	-0.00284649	2	-3.5535e-06	1.32968e-06
2	1	0	0	1	426.033	-0.46188	-0.462114	-0.00260146	2	-3.55892e-06	1.20217e-06
2	1	0	0	1	426.035	-0.456882	-0.45712	-0.0023669	2	-3.56386e-06	1.08196e-06
2	1	0	0	1	426.037	-0.451883	-0.452106	-0.00213812	2	-3.56834e-06	9.66658e-07
2	1	0	0	1	426.039	-0.446885	-0.447123	-0.00192094	2	-3.57238e-06	8.58895e-07
2	1	0	0	1	426.041	-0.441887	-0.442141	-0.00170879	2	-3.57599e-06	7.55527e-07
2	1	0	0	1	426.043	-0.436889	-0.437136	-0.00150053	2	-3.57918e-06	6.55935e-07
2	1	0	0	1	426.045	-0.431817	-0.432054	-0.0012862	2	-3.58195e-06	5.5571e-07
2	1	0	0	1	426.047	-0.426726	-0.426975	-0.00108095	2	-3.58429e-06	4.61538e-07
2	1	0	0	1	426.049	-0.421728	-0.422003	-0.000902388	2	-3.58625e-06	3.80811e-07
2	1	0	0	1	426.051	-0.41673	-0.416995	-0.000723258	2	-3.58786e-06	3.01595e-07
2	1	0	0	1	426.053	-0.411732	-0.411982	-0.000542538	2	-3.58911e-06	2.23516e-07
2	1	0	0	1	426.055	-0.406734	-0.406977	-0.000375103	2	-3.59001e-06	1.52658e-07
2	1	0	0	1	426.057	-0.401736	-0.402009	-0.000211207	2	-3.59058e-06	8.49072e-08
2	1	0	0	1	426.059	-0.396738	-0.397014	-4.75444e-05	2	-3.59082e-06	1.88758e-08
2	1	0	0	1	426.061	-0.39174	-0.391982	0.000111796	2	-3.59074e-06	4.38219e-08
2	1	0	0	1	426.063	-0.386742	-0.387009	0.000266305	2	-3.59035e-06	1.03062e-07
2	1	0	0	1	426.065	-0.381744	-0.382	0.000420285	2	-3.58965e-06	1.60549e-07
2	1	0	0	1	426.067	-0.376745	-0.376986	0.000564814	2	-3.58865e-06	2.12927e-07
2	1	0	0	1	426.069	-0.371747	-0.372004	0.000710953	2	-3.58736e-06	2.64477e-07
2	1	0	0	1	426.071	-0.366749	-0.36697	0.000853131	2	-3.58578e-06	3.13073e-07
2	1	0	0	1	426.073	-0.361751	-0.361998	0.000988634	2	-3.58393e-06	3.57883e-07
2	1	0	0	1	426.075	-0.356753	-0.357017	0.00112047	2	-3.5818e-06	4.00027e-07
2	1	0	0	1	426.077	-0.351755	-0.352023	0.00125466	2	-3.57941e-06	4.41669e-07
2	1	0	0	1	426.079	-0.346757	-0.347012	0.00138802	2	-3.57676e-06	4.8166e-07
2	1	0	0	1	426.081	-0.341759	-0.342027	0.00151939	2	-3.57384e-06	5.19673e-07
2	1	0	0	1	426.083	-0.336761	-0.33698	0.00165418	2	-3.57065e-06	5.57424e-07
2	1	0	0	1	426.085	-0.331763	-0.331987	0.00178146	2	-3.5672e-06	5.91421e-07
2	1	0	0	1	426.087	-0.326765	-0.326973	0.00190755	2	-3.5635e-06	6.23718e-07
2	1	0	0	1	426.089	-0.321766	-0.321977	0.00202979	2	-3.55955e-06	6.53545e-07
2	1	0	0	1	426.091	-0.316768	-0.316994	0.00214921	2	-3.55536e-06	6.81288e-07
2	1	0	0	1	426.093	-0.31177	-0.312011	0.00227077	2	-3.55093e-06	7.08505e-07
2	1	0	0	1	426.095	-0.306772	-0.306991	0.00239426	2	-3.54625e-06	7.35017e-07
2	1	0	0	1	426.097	-0.301774	-0.301998	0.00251338	2	-3.54133e-06	7.59037e-07
2	1	0	0	1	426.099	-0.296776	-0.296987	0.00263641	2	-3.53617e-06	7.8298e-07
2	1	0	0	1	426.101	-0.291778	-0.291971	0.00275737	2	-3.53076e-06	8.05072e-07
2	1	0	0	1	426.103	-0.28678	-0.286982	0.00287622	2	-3.52511e-06	8.25423e-07
2	1	0	0	1	426.105	-0.281782	-0.28198	0.00299539	2	-3.51923e-06	8.4464e-07
2	1	0	0	1	426.107	-0.276784	-0.277004	0.00311324	2	-3.51311e-06	8.62382e-07
2	1	0	0	1	426.109	-0.271785	-0.272001	0.00323395	2	-3.50675e-06	8.79639e-07
2	1	0	0	1	426.111	-0.266787	-0.267007	0.00335486	2	-3.50015e-06	8.9577e-07
2	1	0	0	1	426.113	-0.261789	-0.262	0.0034753	2	-3.49331e-06	9.10528e-07
2	1	0	0	1	426.115	-0.256791	-0.257016	0.00359673	2	-3.48622e-06	9.24418e-07
2	1	0	0	1	426.117	-0.251793	-0.252019	0.00371971	2	-3.47889e-06	9.37438e-07
2	1	0	0	1	426.119	-0.246795	-0.24702	0.00384301	2	-3.47132e-06	9.49301e-07
2	1	0	0	1	426.121	-0.241797	-0.242014	0.00397088	2	-3.46349e-06	9.61009e-07
2	1	0	0	1	426.123	-0.236799	-0.237043	0.00409475	2	-3.45542e-06	9.70632e-07
2	1	0	0	1	426.125	-0.231801	-0.232036	0.00422284	2	-3.44709e-06	9.79853e-07
2	1	0	0	1	426.127	-0.226803	-0.227057	0.00434535	2	-3.4385e-06	9.86642e-07
2	1	0	0	1	426.129	-0.221805	-0.222046	0.0044724	2	-3.42968e-06	9.9308e-07
2	1	0	0	1	426.131	-0.216806	-0.217051	0.00459833	2	-3.42059e-06	9.9807e-07
2	1	0	0	1	426.133	-0.211808	-0.21202	0.00472781	2	-3.41125e-06	1.00239e-06
2	1	0	0	1	426.135	-0.20681	-0.207012	0.00485096	2	-3.40166e-06	1.00421e-06
2	1	0	0	1	426.137	-0.201812	-0.20201	0.00497244	2	-3.39183e-06	1.00448e-06
2	1	0	0	1	426.139	-0.196814	-0.197001	0.0050869	2	-3.38175e-06	1.00212e-06
2	1	0	0	1	426.141	-0.191816	-0.192029	0.00519511	2	-3.37146e-06	9.9761e-07
2	1	0	0	1	426.143	-0.186818	-0.18705	0.0053037	2	-3.36095e-06	9.92056e-07
2	1	0	0	1	426.145	-0.18182	-0.182035	0.00540126	2	-3.35024e-06	9.83216e-07
2	1	0	0	1	426.147	-0.176822	-0.177042	0.00550296	2	-3.33932e-06	9.74256e-07
2	1	0	0	1	426.149	-0.171824	-0.172052	0.00559363	2	-3.32822e-06	9.62393e-07
2	1	0	0	1	426.151	-0.166826	-0.167048	0.00568089	2	-3.31693e-06	9.48983e-07
2	1	0	0	1	426.153	-0.161827	-0.16205	0.00576467	2	-3.30548e-06	9.34163e-07
2	1	0	0	1	426.155	-0.156829	-0.157036	0.00584341	2	-3.29386e-06	9.17623e-07
2	1	0	0	1	426.157	-0.151831	-0.152042	0.00591884	2	-3.28209e-06	8.99914e-07
2	1	0	0	1	426.159	-0.146833	-0.147067	0.0059905	2	-3.27018e-06	8.81002e-07
2	1	0	0	1	426.161	-0.141835	-0.142051	0.00605763	2	-3.25812e-06	8.60492e-07
2	1	0	0	1	426.163	-0.136837	-0.137056	0.0061253	2	-3.24593e-06	8.39511e-07
2	1	0	0	1	426.165	-0.131839	-0.132051	0.00618883	2	-3.23361e-06	8.17242e-07
2	1	0	0	1	426.167	-0.126841	-0.127053	0.00624953	2	-3.22117e-06	7.94025e-07
2	1	0	0	1	426.169	-0.121843	-0.122054	0.00630395	2	-3.20861e-06	7.69421e-07
2	1	0	0	1	426.171	-0.116845	-0.117031	0.00635662	2	-3.19594e-06	7.43923e-07
2	1	0	0	1	426.173	-0.111846	-0.112029	0.00641036	2	-3.18317e-06	7.18146e-07
2	1	0	0	1	426.175	-0.106848	-0.107043	0.00644782	2	-3.17031e-06	6.90193e-07
2	1	0	0	1	426.177	-0.10185	-0.102047	0.00649166	2	-3.15736e-06	6.62456e-07
2	1	0	0	1	426.179	-0.0968522	-0.0970431	0.00653382	2	-3.14434e-06	6.34063e-07
2	1	0	0	1	426.181	-0.0918541	-0.0920437	0.00657862	2	-3.13122e-06	6.0552e-07
2	1	0	0	1	426.183	-0.086856	-0.0870595	0.00661127	2	-3.11803e-06	5.75574e-07
2	1	0	0	1	426.185	-0.0818579	-0.0820687	0.00664303	2	-3.10477e-06	5.45185e-07
2	1	0	0	1	426.187	-0.0768598	-0.0770834	0.00667327	2	-3.09145e-06	5.14398e-07
2	1	0	0	1	426.189	-0.0718617	-0.0720755	0.00670594	2	-3.07807e-06	4.83334e-07
2	1	0	0	1	426.191	-0.0668636	-0.0670743	0.00672976	2	-3.06463e-06	4.51394e-07
2	1	0	0	1	426.193	-0.0618655	-0.0620922	0.00675052	2	-3.05115e-06	4.19155e-07
2	1	0	0	1	426.195	-0.0568674	-0.0570856	0.00677086	2	-3.03762e-06	3.86519e-07
2	1	0	0	1	426.197	-0.0518693	-0.0520959	0.0067958	2	-3.02405e-06	3.54033e-07
2	1	0	0	1	426.199	-0.0468712	-0.047083	0.00681076	2	-3.01045e-06	3.20671e-07
2	1	0	0	1	426.201	-0.0418731	-0.0420876	0.00682019	2	-2.99681e-06	2.87046e-07
2	1	0	0	1	426.203	-0.0368751	-0.0370797	0.00683706	2	-2.98316e-06	2.53516e-07
2	1	0	0	1	426.205	-0.031877	-0.0320844	0.00685075	2	-2.96947e-06	2.19802e-07
2	1	0	0	1	426.207	-0.0268789	-0.0270682	0.00686484	2	-2.95575e-06	1.85819e-07
2	1	0	0	1	426.209	-0.0218808	-0.0220777	0.00688013	2	-2.942e-06	1.51897e-07
2	1	0	0	1	426.211	-0.0168827	-0.017099	0.00688505	2	-2.92824e-06	1.17727e-07
2	1	0	0	1	426.213	-0.0118846	-0.0121069	0.00689253	2	-2.91446e-06	8.34475e-08
2	1	0	0	1	426.215	-0.00688649	-0.00710939	0.00690289	2	-2.90066e-06	4.90753e-08
2	1	0	0	1	426.217	-0.0018884	-0.00212179	0.00690774	2	-2.88685e-06	1.46568e-08
2	1	0	0	1	426.219	0.0031097	0.00291922	0.00692243	2	-2.87302e-06	2.02081e-08
2	1	0	0	1	426.221	0.00827439	0.00809037	0.00695667	2	-2.85914e-06	5.6282e-08
2	1	0	0	1	426.223	0.0132725	0.0131115	0.00695544	2	-2.84523e-06	9.11959e-08
2	1	0	0	1	426.225	0.0182706	0.0181007	0.00695084	2	-2.83132e-06	1.25815e-07
2	1	0	0	1	426.227	0.0232687	0.0230866	0.0069412	2	-2.81743e-06	1.60249e-07
2	1	0	0	1	426.229	0.0282668	0.0280787	0.00693372	2	-2.80355e-06	1.9469e-07
2	1	0	0	1	426.231	0.0332649	0.033069	0.00693773	2	-2.78968e-06	2.29424e-07
2	1	0	0	1	426.233	0.0382629	0.0381043	0.00693472	2	-2.77581e-06	2.64243e-07
2	1	0	0	1	426.235	0.043261	0.0430766	0.00692559	2	-2.76195e-06	2.98331e-07
2	1	0	0	1	426.237	0.0482591	0.0481259	0.00692277	2	-2.7481e-06	3.33164e-07
2	1	0	0	1	426.239	0.0532572	0.0531107	0.00691448	2	-2.73426e-06	3.67233e-07
2	1	0	0	1	426.241	0.0582553	0.0581085	0.00691359	2	-2.72044e-06	4.01739e-07
2	1	0	0	1	426.243	0.0632534	0.0630906	0.00690406	2	-2.70662e-06	4.35581e-07
2	1	0	0	1	426.245	0.0682515	0.0681072	0.00689728	2	-2.69282e-06	4.69754e-07
2	1	0	0	1	426.247	0.0732496	0.0731116	0.00689145	2	-2.67903e-06	5.03845e-07
2	1	0	0	1	426.249	0.0782477	0.0780983	0.00688412	2	-2.66526e-06	5.37638e-07
2	1	0	0	1	426.251	0.0832458	0.0831005	0.00686583	2	-2.65151e-06	5.70554e-07
2	1	0	0	1	426.253	0.0882439	0.0880639	0.00685704	2	-2.63779e-06	6.03858e-07
2	1	0	0	1	426.255	0.093242	0.0930659	0.00684801	2	-2.62408e-06	6.37317e-07
2	1	0	0	1	426.257	0.0977403	0.097585	0.00684091	2	-2.61176e-06	6.6757e-07
2	1	0	0	1	426.258	0.0999061	0.0997535	0.00681691	2	-2.60561e-06	6.80011e-07
2	1	0	1	1	426.258	0.100573	0.100379	0.0068478	2	-2.60424e-06	6.87377e-07
2	0	0	0	1	426.258	0.0999061	0.0997688	0.0066304	2	-2.60291e-06	6.61508e-07
2	0	0	1	1	426.259	0.0972404	0.097113	0.0056611	2	-2.5966e-06	5.49766e-07
2	0	0	1	1	426.261	0.0922423	0.0921172	0.0041872	2	-2.58692e-06	3.85713e-07
2	0	0	1	1	426.263	0.0872442	0.0870889	0.00304347	2	-2.57981e-06	2.65052e-07
2	0	0	1	1	426.265	0.0822462	0.0821219	0.00213285	2	-2.57473e-06	1.75154e-07
2	0	0	1	1	426.267	0.0772481	0.0771315	0.00138285	2	-2.57129e-06	1.06662e-07
2	0	0	1	1	426.269	0.07225	0.072114	0.000760769	2	-2.56922e-06	5.48621e-08
2	0	0	1	1	426.271	0.0672519	0.0671228	0.00023823	2	-2.56827e-06	1.59907e-08
2	0	0	1	1	426.273	0.0622538	0.0621446	-0.000207309	2	-2.56829e-06	1.28831e-08
2	0	0	1	1	426.275	0.0572557	0.0571583	-0.000592755	2	-2.56913e-06	3.38809e-08
2	0	0	1	1	426.277	0.0522576	0.0521334	-0.000935676	2	-2.57069e-06	4.87799e-08
2	0	0	1	1	426.279	0.0472595	0.0471394	-0.00123124	2	-2.57289e-06	5.80399e-08
2	0	0	1	1	426.281	0.0422614	0.042105	-0.00150434	2	-2.57565e-06	6.33403e-08
2	0	0	1	1	426.283	0.0372633	0.037143	-0.00174164	2	-2.57892e-06	6.46897e-08
2	0	0	1	1	426.285	0.0322652	0.0321141	-0.00196298	2	-2.58265e-06	6.30392e-08
2	0	0	1	1	426.287	0.0272671	0.0271248	-0.00216073	2	-2.5868e-06	5.86095e-08
2	0	0	1	1	426.289	0.0222691	0.0221262	-0.00234624	2	-2.59132e-06	5.19134e-08
2	0	0	1	1	426.291	0.017271	0.0171496	-0.00251736	2	-2.5962e-06	4.31718e-08
2	0	0	1	1	426.293	0.0122729	0.0121379	-0.00267899	2	-2.60142e-06	3.25173e-08
2	0	0	1	1	426.295	0.00723775	0.00708459	-0.0028389	2	-2.60695e-06	2.01124e-08
2	0	0	1	1	426.297	0.00211008	0.00195264	-0.00299831	2	-2.6128e-06	5.85463e-09
2	0	0	1	1	426.299	-0.00288801	-0.00307437	-0.00313557	2	-2.61895e-06	9.63991e-09
2	0	0	1	1	426.301	-0.00788611	-0.00804247	-0.00325776	2	-2.62536e-06	2.62005e-08
2	0	0	1	1	426.303	-0.0128842	-0.0130629	-0.00337524	2	-2.632e-06	4.40904e-08
2	0	0	1	1	426.305	-0.0178823	-0.0180507	-0.0034919	2	-2.63888e-06	6.30313e-08
2	0	0	1	1	426.307	-0.0228804	-0.023029	-0.00360374	2	-2.64599e-06	8.29904e-08
2	0	0	1	1	426.309	-0.0278785	-0.0280287	-0.00371438	2	-2.65332e-06	1.04109e-07
2	0	0	1	1	426.311	-0.0328766	-0.0330385	-0.00382226	2	-2.66087e-06	1.26282e-07
2	0	0	1	1	426.313	-0.0378747	-0.0380261	-0.00392608	2	-2.66863e-06	1.49294e-07
2	0	0	1	1	426.315	-0.0428728	-0.0430446	-0.00403671	2	-2.6766e-06	1.73759e-07
2	0	0	1	1	426.317	-0.0478709	-0.0480545	-0.00413397	2	-2.68478e-06	1.98656e-07
2	0	0	1	1	426.319	-0.052869	-0.053065	-0.0042351	2	-2.69316e-06	2.24736e-07
2	0	0	1	1	426.321	-0.0578671	-0.0580619	-0.00433009	2	-2.70173e-06	2.51413e-07
2	0	0	1	1	426.323	-0.0628651	-0.0630408	-0.00441955	2	-2.71049e-06	2.78612e-07
2	0	0	1	1	426.325	-0.0678632	-0.0680581	-0.00451111	2	-2.71943e-06	3.07017e-07
2	0	0	1	1	426.327	-0.0728613	-0.0730416	-0.00460464	2	-2.72856e-06	3.3633e-07
2	0	0	1	1	426.329	-0.0778594	-0.0780534	-0.00469765	2	-2.73787e-06	3.66668e-07
2	0	0	1	1	426.331	-0.0828575	-0.0830439	-0.00478745	2	-2.74736e-06	3.97569e-07
2	0	0	1	1	426.333	-0.0878556	-0.088011	-0.00487289	2	-2.75703e-06	4.28868e-07
2	0	0	1	1	426.335	-0.0928537	-0.0930064	-0.00496029	2	-2.76687e-06	4.61339e-07
2	0	0	1	1	426.337	-0.0978518	-0.0980052	-0.00505536	2	-2.7769e-06	4.95452e-07
2	0	0	1	1	426.339	-0.10285	-0.103009	-0.00513603	2	-2.7871e-06	5.29056e-07
2	0	0	1	1	426.341	-0.107848	-0.108009	-0.00522371	2	-2.79747e-06	5.64209e-07
2	0	0	1	1	426.343	-0.112846	-0.112995	-0.00531086	2	-2.80801e-06	6.00101e-07
2	0	0	1	1	426.345	-0.117844	-0.117997	-0.00539684	2	-2.81872e-06	6.3681e-07
2	0	0	1	1	426.347	-0.122842	-0.122987	-0.00548427	2	-2.82961e-06	6.74493e-07
2	0	0	1	1	426.349	-0.12784	-0.128015	-0.00557483	2	-2.84068e-06	7.13664e-07
2	0	0	1	1	426.351	-0.132838	-0.133005	-0.00566058	2	-2.85193e-06	7.52884e-07
2	0	0	1	1	426.353	-0.137837	-0.138025	-0.00575121	2	-2.86335e-06	7.93808e-07
2	0	0	1	1	426.355	-0.142835	-0.142997	-0.00583785	2	-2.87495e-06	8.34795e-07
2	0	0	1	1	426.357	-0.147833	-0.148019	-0.00592343	2	-2.88672e-06	8.7678e-07
2	0	0	1	1	426.359	-0.152831	-0.153008	-0.00600918	2	-2.89866e-06	9.19456e-07
2	0	0	1	1	426.361	-0.157829	-0.157997	-0.00610048	2	-2.91078e-06	9.63858e-07
2	0	0	1	1	426.363	-0.162827	-0.163005	-0.00619049	2	-2.92308e-06	1.00908e-06
2	0	0	1	1	426.365	-0.167825	-0.168016	-0.00627985	2	-2.93555e-06	1.05511e-06
2	0	0	1	1	426.367	-0.172823	-0.173026	-0.00636624	2	-2.94821e-06	1.10153e-06
2	0	0	1	1	426.369	-0.177821	-0.178025	-0.00645489	2	-2.96104e-06	1.14913e-06
2	0	0	1	1	426.371	-0.182819	-0.183013	-0.00655221	2	-2.97405e-06	1.19914e-06
2	0	0	1	1	426.373	-0.187817	-0.188024	-0.00663186	2	-2.98725e-06	1.24695e-06
2	0	0	1	1	426.375	-0.192816	-0.192993	-0.00671842	2	-3.00061e-06	1.29661e-06
2	0	0	1	1	426.377	-0.197814	-0.197995	-0.00680669	2	-3.01414e-06	1.34769e-06
2	0	0	1	1	426.379	-0.202812	-0.203003	-0.00690174	2	-3.02786e-06	1.40107e-06
2	0	0	1	1	426.381	-0.20781	-0.207987	-0.00699718	2	-3.04177e-06	1.45532e-06
2	0	0	1	1	426.383	-0.212808	-0.213015	-0.00709634	2	-3.05587e-06	1.51162e-06
2	0	0	1	1	426.385	-0.217806	-0.218007	-0.00718792	2	-3.07016e-06	1.56702e-06
2	0	0	1	1	426.387	-0.222804	-0.223002	-0.00728511	2	-3.08465e-06	1.62459e-06
2	0	0	1	1	426.389	-0.227802	-0.228006	-0.00738303	2	-3.09932e-06	1.68337e-06
2	0	0	1	1	426.391	-0.2328	-0.233	-0.00747924	2	-3.1142e-06	1.74267e-06
2	0	0	1	1	426.393	-0.237798	-0.237999	-0.00758216	2	-3.12927e-06	1.80455e-06
2	0	0	1	1	426.395	-0.242797	-0.242998	-0.0076849	2	-3.14454e-06	1.86741e-06
2	0	0	1	1	426.397	-0.247795	-0.248012	-0.0077942	2	-3.16003e-06	1.93305e-06
2	0	0	1	1	426.399	-0.252793	-0.252995	-0.00790105	2	-3.17574e-06	1.99892e-06
2	0	0	1	1	426.401	-0.257791	-0.25797	-0.00801136	2	-3.19166e-06	2.06669e-06
2	0	0	1	1	426.403	-0.262789	-0.262967	-0.00812773	2	-3.20781e-06	2.13733e-06
2	0	0	1	1	426.405	-0.267787	-0.267984	-0.00824571	2	-3.2242e-06	2.20971e-06
2	0	0	1	1	426.407	-0.272785	-0.272968	-0.00836685	2	-3.24082e-06	2.28388e-06
2	0	0	1	1	426.409	-0.277783	-0.27795	-0.00849076	2	-3.25769e-06	2.36001e-06
2	0	0	1	1	426.411	-0.282781	-0.282948	-0.00861721	2	-3.27481e-06	2.43822e-06
2	0	0	1	1	426.413	-0.287779	-0.287959	-0.00874918	2	-3.29219e-06	2.51941e-06
2	0	0	1	1	426.415	-0.292777	-0.292947	-0.00888123	2	-3.30984e-06	2.60173e-06
2	0	0	1	1	426.417	-0.297776	-0.297963	-0.00902343	2	-3.32776e-06	2.68865e-06
2	0	0	1	1	426.419	-0.302774	-0.302967	-0.00915636	2	-3.34595e-06	2.77408e-06
2	0	0	1	1	426.421	-0.307772	-0.307966	-0.0092957	2	-3.36441e-06	2.86276e-06
2	0	0	1	1	426.423	-0.31277	-0.312974	-0.00944061	2	-3.38317e-06	2.95467e-06
2	0	0	1	1	426.425	-0.317768	-0.317963	-0.00958709	2	-3.40221e-06	3.04834e-06
2	0	0	1	1	426.427	-0.322766	-0.322952	-0.00972743	2	-3.42153e-06	3.14149e-06
2	0	0	1	1	426.429	-0.327764	-0.327953	-0.00988369	2	-3.44116e-06	3.24138e-06
2	0	0	1	1	426.431	-0.332762	-0.332962	-0.0100329	2	-3.46109e-06	3.34056e-06
2	0	0	1	1	426.433	-0.33776	-0.337966	-0.0101829	2	-3.48132e-06	3.44147e-06
2	0	0	1	1	426.435	-0.342758	-0.342985	-0.0103321	2	-3.50185e-06	3.54376e-06
2	0	0	1	1	426.437	-0.347757	-0.347981	-0.0104826	2	-3.52268e-06	3.64773e-06
2	0	0	1	1	426.439	-0.352755	-0.352998	-0.0106287	2	-3.54381e-06	3.75192e-06
2	0	0	1	1	426.441	-0.357753	-0.357981	-0.0107717	2	-3.56522e-06	3.85608e-06
2	0	0	1	1	426.443	-0.362751	-0.362979	-0.0109207	2	-3.58693e-06	3.964e-06
2	0	0	1	1	426.445	-0.367749	-0.367953	-0.0110549	2	-3.60892e-06	4.0677e-06
2	0	0	1	1	426.447	-0.372747	-0.372971	-0.011199	2	-3.63119e-06	4.17689e-06
2	0	0	1	1	426.449	-0.377745	-0.377953	-0.0113292	2	-3.65373e-06	4.28189e-06
2	0	0	1	1	426.451	-0.382743	-0.382989	-0.011469	2	-3.67654e-06	4.39251e-06
2	0	0	1	1	426.453	-0.387741	-0.387982	-0.0116059	2	-3.69963e-06	4.50288e-06
2	0	0	1	1	426.455	-0.392739	-0.392972	-0.0117325	2	-3.72298e-06	4.61055e-06
2	0	0	1	1	426.457	-0.397737	-0.397991	-0.0118598	2	-3.74659e-06	4.7201e-06
2	0	0	1	1	426.459	-0.402736	-0.402968	-0.0119793	2	-3.77044e-06	4.82728e-06
2	0	0	1	1	426.461	-0.407734	-0.407964	-0.0121111	2	-3.79454e-06	4.94091e-06
2	0	0	1	1	426.463	-0.412732	-0.412957	-0.0122264	2	-3.81889e-06	5.04896e-06
2	0	0	1	1	426.465	-0.41773	-0.41795	-0.0123358	2	-3.84346e-06	5.15575e-06
2	0	0	1	1	426.467	-0.422728	-0.422965	-0.0124418	2	-3.86825e-06	5.26244e-06
2	0	0	1	1	426.469	-0.427726	-0.427937	-0.0125395	2	-3.89324e-06	5.36613e-06
2	0	0	1	1	426.471	-0.432854	-0.433062	-0.0126729	2	-3.91847e-06	5.48816e-06
2	0	0	1	1	426.473	-0.437889	-0.438107	-0.0127825	2	-3.94393e-06	5.60009e-06
2	0	0	1	1	426.475	-0.442887	-0.443094	-0.012876	2	-3.9696e-06	5.70529e-06
2	0	0	1	1	426.477	-0.447885	-0.448085	-0.0129722	2	-3.99546e-06	5.81263e-06
2	0	0	1	1	426.479	-0.452883	-0.453064	-0.0130774	2	-4.02152e-06	5.92491e-06
2	0	0	1	1	426.481	-0.457881	-0.458093	-0.0131807	2	-4.04779e-06	6.03801e-06
2	0	0	1	1	426.483	-0.462879	-0.463085	-0.0132766	2	-4.07425e-06	6.1482e-06
2	0	0	1	1	426.485	-0.467877	-0.468076	-0.0133855	2	-4.10092e-06	6.26543e-06
2	0	0	1	1	426.487	-0.472876	-0.473103	-0.0134948	2	-4.12782e-06	6.38444e-06
2	0	0	1	1	426.489	-0.477874	-0.478094	-0.0135968	2	-4.15492e-06	6.50053e-06
2	0	0	1	1	426.491	-0.482872	-0.483097	-0.0137016	2	-4.18223e-06	6.61918e-06
2	0	0	1	1	426.493	-0.48787	-0.488095	-0.0138161	2	-4.20976e-06	6.74355e-06
2	0	0	1	1	426.495	-0.492868	-0.493079	-0.0139144	2	-4.2375e-06	6.86091e-06
2	0	0	1	1	426.497	-0.497866	-0.498062	-0.0140251	2	-4.26545e-06	6.98537e-06
2	0	0	1	1	426.499	-0.502864	-0.503101	-0.014148	2	-4.29363e-06	7.11786e-06
2	0	0	1	1	426.501	-0.507862	-0.508097	-0.0142726	2	-4.32206e-06	7.25188e-06
2	0	0	1	1	426.503	-0.51286	-0.513093	-0.0143979	2	-4.35075e-06	7.38748e-06
2	0	0	1	1	426.505	-0.517858	-0.518076	-0.01453	2	-4.37969e-06	7.52764e-06
2	0	0	1	1	426.507	-0.522856	-0.523098	-0.0146622	2	-4.40889e-06	7.66976e-06
2	0	0	1	1	426.509	-0.527855	-0.528077	-0.0147931	2	-4.43836e-06	7.8119e-06
2	0	0	1	1	426.511	-0.532853	-0.533073	-0.0149252	2	-4.46809e-06	7.95622e-06
2	0	0	1	1	426.513	-0.537851	-0.538066	-0.0150757	2	-4.49811e-06	8.11173e-06
2	0	0	1	1	426.515	-0.542849	-0.543048	-0.0152372	2	-4.52844e-06	8.27453e-06
2	0	0	1	1	426.517	-0.547847	-0.548063	-0.0153958	2	-4.55908e-06	8.43785e-06
2	0	0	1	1	426.519	-0.552845	-0.55307	-0.0155549	2	-4.59005e-06	8.60296e-06
2	0	0	1	1	426.521	-0.557843	-0.558072	-0.0157144	2	-4.62134e-06	8.76977e-06
2	0	0	1	1	426.523	-0.562841	-0.563064	-0.0158735	2	-4.65294e-06	8.93782e-06
2	0	0	1	1	426.525	-0.567839	-0.568056	-0.0160518	2	-4.68488e-06	9.11832e-06
2	0	0	1	1	426.527	-0.572837	-0.573072	-0.0162361	2	-4.71719e-06	9.30447e-06
2	0	0	1	1	426.529	-0.577835	-0.578064	-0.0164057	2	-4.74985e-06	9.48352e-06
2	0	0	1	1	426.531	-0.582834	-0.583054	-0.0165858	2	-4.78286e-06	9.6704e-06
2	0	0	1	1	426.533	-0.587832	-0.588063	-0.0167867	2	-4.81625e-06	9.87164e-06
2	0	0	1	1	426.535	-0.59283	-0.593038	-0.0169885	2	-4.85004e-06	1.00748e-05
2	0	0	1	1	426.537	-0.597328	-0.597553	-0.0171763	2	-4.8808e-06	1.02638e-05
2	0	0	1	1	426.538	-0.599494	-0.599684	-0.0172502	2	-4.89628e-06	1.03447e-05
2	0	0	0	1	426.538	-0.60016	-0.600344	-0.0173146	2	-4.89974e-06	1.03947e-05