File: TAP_Report/Data/Res_PB/100 uM RS 10mM PB_06_CV_C01_2.mpt
EC-Lab ASCII FILE
Nb header lines : 53

Cyclic Voltammetry

Run on channel : 1 (SN 0696)
User :
Electrode connection : standard
Ewe ctrl range : min = -10.00 V, max = 10.00 V
Ewe,I filtering : 50 kHz
Channel : Grounded
Acquisition started on : 05/17/2017 12:53:20
Saved on :
	File : 100 uM RS 10mM PB_06_CV_C01.mpr
	Directory : \\userfs\st659\w2k\EC-Lab\Data\ITO Characterisation 17-5-17\
	Host : 144.32.136.43
Device : SP-300 (SN 0182)
Address : USB
EC-Lab for windows v10.44 (software)
Internet server v10.44 (firmware)
Command interpretor v10.44 (firmware)
Electrode material :
Initial state :
Electrolyte :
Comments :
Cable : standard
Electrode surface area : 0.001 cm²
Characteristic mass : 0.001 g
Equivalent Weight : 0.000 g/eq.
Density : 0.000 g/cm3
Ei (V)              0.000
vs.                 Eoc
dE/dt               1000.000
dE/dt unit          mV/s
E1 (V)              0.100
vs.                 Ref
Step percent        50
N                   10
E range min (V)     -10.000
E range max (V)     10.000
I Range             Auto
I Range min         Unset
I Range max         Unset
I Range init        Unset
Bandwidth           8
E2 (V)              -0.600
vs.                 Ref
nc cycles           2
Reverse Scan        1
Ef (V)              0.000
vs.                 Eoc

mode	ox/red	error	control changes	counter inc.	time/s	control/V	Ewe/V	<I>/mA	cycle number	(Q-Qo)/C	P/W
2	1	0	0	1	421.616	-0.60016	-0.600352	-0.0141162	2	-5.07142e-06	8.47469e-06
2	1	0	0	1	421.618	-0.598328	-0.598568	-0.0135324	2	-5.09726e-06	8.10008e-06
2	1	0	1	1	421.622	-0.594929	-0.595153	-0.0126768	2	-5.14168e-06	7.54465e-06
2	1	0	1	1	421.625	-0.59173	-0.59195	-0.0120484	2	-5.18113e-06	7.13202e-06
2	1	0	0	1	421.628	-0.588332	-0.588574	-0.0115005	2	-5.22106e-06	6.76889e-06
2	1	0	1	1	421.632	-0.584933	-0.585171	-0.0110372	2	-5.25928e-06	6.45866e-06
2	1	0	1	1	421.635	-0.581734	-0.581948	-0.0106508	2	-5.2939e-06	6.19824e-06
2	1	0	0	1	421.638	-0.578335	-0.578553	-0.0102814	2	-5.3294e-06	5.94832e-06
2	1	0	1	1	421.642	-0.574937	-0.575169	-0.00994692	2	-5.36371e-06	5.72116e-06
2	1	0	1	1	421.645	-0.571738	-0.571973	-0.00965683	2	-5.39501e-06	5.52344e-06
2	1	0	0	1	421.648	-0.568339	-0.568592	-0.00936227	2	-5.42726e-06	5.32331e-06
2	1	0	1	1	421.652	-0.56494	-0.565186	-0.00908418	2	-5.45855e-06	5.13425e-06
2	1	0	1	1	421.655	-0.561742	-0.561981	-0.00883884	2	-5.48716e-06	4.96725e-06
2	1	0	0	1	421.658	-0.558343	-0.558583	-0.00858872	2	-5.51671e-06	4.79751e-06
2	1	0	1	1	421.662	-0.554944	-0.555184	-0.00834642	2	-5.54543e-06	4.6338e-06
2	1	0	1	1	421.665	-0.551745	-0.551975	-0.00812769	2	-5.57173e-06	4.48628e-06
2	1	0	0	1	421.668	-0.548347	-0.548568	-0.00790572	2	-5.59892e-06	4.33682e-06
2	1	0	1	1	421.672	-0.544948	-0.545173	-0.00769293	2	-5.62537e-06	4.19398e-06
2	1	0	1	1	421.675	-0.541749	-0.541964	-0.00749461	2	-5.64961e-06	4.06181e-06
2	1	0	0	1	421.678	-0.538351	-0.538565	-0.00729478	2	-5.67469e-06	3.92871e-06
2	1	0	1	1	421.682	-0.534952	-0.535158	-0.00710337	2	-5.69911e-06	3.80142e-06
2	1	0	1	1	421.685	-0.531753	-0.531989	-0.00692544	2	-5.7215e-06	3.68426e-06
2	1	0	0	1	421.688	-0.528354	-0.528585	-0.0067408	2	-5.74466e-06	3.56308e-06
2	1	0	1	1	421.692	-0.524956	-0.525199	-0.00656358	2	-5.76722e-06	3.44719e-06
2	1	0	1	1	421.695	-0.521757	-0.521991	-0.00639644	2	-5.7879e-06	3.33889e-06
2	1	0	0	1	421.698	-0.518358	-0.518596	-0.00622861	2	-5.80929e-06	3.23013e-06
2	1	0	1	1	421.702	-0.51496	-0.515209	-0.00606568	2	-5.83014e-06	3.1251e-06
2	1	0	1	1	421.705	-0.511761	-0.512009	-0.00591063	2	-5.84925e-06	3.02629e-06
2	1	0	0	1	421.708	-0.508362	-0.508623	-0.00575404	2	-5.86901e-06	2.92664e-06
2	1	0	1	1	421.712	-0.504963	-0.505204	-0.00559635	2	-5.88825e-06	2.8273e-06
2	1	0	1	1	421.715	-0.501765	-0.502003	-0.00545661	2	-5.90588e-06	2.73923e-06
2	1	0	0	1	421.718	-0.498366	-0.498602	-0.00530542	2	-5.92411e-06	2.6453e-06
2	1	0	1	1	421.722	-0.494967	-0.495193	-0.00516115	2	-5.94185e-06	2.55577e-06
2	1	0	1	1	421.725	-0.491768	-0.491999	-0.00502729	2	-5.9581e-06	2.47342e-06
2	1	0	0	1	421.728	-0.48837	-0.48861	-0.00489459	2	-5.97491e-06	2.39155e-06
2	1	0	1	1	421.732	-0.484971	-0.485215	-0.00476	2	-5.99127e-06	2.30962e-06
2	1	0	1	1	421.735	-0.481772	-0.482012	-0.00463605	2	-6.00625e-06	2.23463e-06
2	1	0	0	1	421.738	-0.478373	-0.478619	-0.00450642	2	-6.02173e-06	2.15686e-06
2	1	0	1	1	421.742	-0.474975	-0.475199	-0.0043795	2	-6.03678e-06	2.08113e-06
2	1	0	1	1	421.745	-0.471776	-0.472016	-0.00426305	2	-6.05056e-06	2.01223e-06
2	1	0	0	1	421.748	-0.468377	-0.468608	-0.00414105	2	-6.06479e-06	1.94053e-06
2	1	0	1	1	421.752	-0.464979	-0.465195	-0.00401931	2	-6.07861e-06	1.86976e-06
2	1	0	1	1	421.755	-0.46178	-0.462003	-0.0039112	2	-6.09125e-06	1.80699e-06
2	1	0	0	1	421.758	-0.458381	-0.458608	-0.00379555	2	-6.10429e-06	1.74067e-06
2	1	0	1	1	421.762	-0.454982	-0.455196	-0.0036836	2	-6.11695e-06	1.67676e-06
2	1	0	1	1	421.765	-0.451784	-0.451995	-0.00357967	2	-6.12852e-06	1.61799e-06
2	1	0	0	1	421.768	-0.448385	-0.448594	-0.00347455	2	-6.14046e-06	1.55866e-06
2	1	0	1	1	421.772	-0.444986	-0.44522	-0.00337288	2	-6.15205e-06	1.50167e-06
2	1	0	1	1	421.775	-0.441787	-0.442007	-0.00327429	2	-6.16263e-06	1.44726e-06
2	1	0	0	1	421.778	-0.438389	-0.438617	-0.00317251	2	-6.17354e-06	1.39152e-06
2	1	0	1	1	421.782	-0.43499	-0.435217	-0.00307165	2	-6.1841e-06	1.33684e-06
2	1	0	1	1	421.785	-0.431769	-0.431982	-0.00297311	2	-6.19372e-06	1.28433e-06
2	1	0	0	1	421.788	-0.428326	-0.428552	-0.00287364	2	-6.20361e-06	1.23151e-06
2	1	0	0	1	421.791	-0.425127	-0.425383	-0.00279163	2	-6.21262e-06	1.18751e-06
2	1	0	1	1	421.795	-0.421728	-0.421961	-0.00269637	2	-6.2219e-06	1.13776e-06
2	1	0	0	1	421.798	-0.41833	-0.41857	-0.0026075	2	-6.23087e-06	1.09142e-06
2	1	0	0	1	421.801	-0.415131	-0.415371	-0.00252399	2	-6.23903e-06	1.04839e-06
2	1	0	1	1	421.805	-0.411732	-0.411963	-0.00243481	2	-6.2474e-06	1.00305e-06
2	1	0	0	1	421.808	-0.408333	-0.408572	-0.0023516	2	-6.25549e-06	9.60796e-07
2	1	0	0	1	421.811	-0.405135	-0.405378	-0.00227003	2	-6.26284e-06	9.2022e-07
2	1	0	1	1	421.815	-0.401736	-0.401985	-0.00218599	2	-6.27036e-06	8.78735e-07
2	1	0	0	1	421.818	-0.398337	-0.398589	-0.00210375	2	-6.2776e-06	8.38532e-07
2	1	0	0	1	421.821	-0.395139	-0.395383	-0.00202895	2	-6.28417e-06	8.02211e-07
2	1	0	1	1	421.825	-0.39174	-0.391982	-0.00194576	2	-6.29087e-06	7.62704e-07
2	1	0	0	1	421.828	-0.388341	-0.388584	-0.00186934	2	-6.29731e-06	7.26396e-07
2	1	0	0	1	421.847	-0.369917	-0.370192	-0.0014765	2	-6.32943e-06	5.46588e-07
2	1	0	1	1	421.865	-0.351355	-0.351595	-0.00108358	2	-6.36046e-06	3.80982e-07
2	1	0	1	1	421.868	-0.348156	-0.348375	-0.00101675	2	-6.36379e-06	3.54209e-07
2	1	0	0	1	421.872	-0.344758	-0.344993	-0.000948463	2	-6.36709e-06	3.27213e-07
2	1	0	1	1	421.875	-0.341359	-0.341605	-0.000881724	2	-6.37016e-06	3.01201e-07
2	1	0	1	1	421.878	-0.33816	-0.338379	-0.000813069	2	-6.37284e-06	2.75125e-07
2	1	0	0	1	421.882	-0.334762	-0.334972	-0.000747711	2	-6.37545e-06	2.50462e-07
2	1	0	1	1	421.885	-0.331363	-0.331576	-0.000679816	2	-6.37784e-06	2.25411e-07
2	1	0	1	1	421.888	-0.328164	-0.328356	-0.000616309	2	-6.37988e-06	2.02369e-07
2	1	0	0	1	421.892	-0.324765	-0.32495	-0.000549162	2	-6.38183e-06	1.7845e-07
2	1	0	1	1	421.895	-0.321367	-0.321551	-0.000484007	2	-6.38355e-06	1.55633e-07
2	1	0	1	1	421.898	-0.318168	-0.31838	-0.000424307	2	-6.38497e-06	1.35091e-07
2	1	0	0	1	421.902	-0.314769	-0.314974	-0.000357579	2	-6.38626e-06	1.12628e-07
2	1	0	1	1	421.905	-0.31137	-0.311586	-0.000292634	2	-6.38733e-06	9.11807e-08
2	1	0	1	1	421.908	-0.308172	-0.308373	-0.000230332	2	-6.38813e-06	7.10281e-08
2	1	0	0	1	421.912	-0.304773	-0.304956	-0.000163195	2	-6.38876e-06	4.97672e-08
2	1	0	1	1	421.915	-0.301374	-0.301568	-0.000100071	2	-6.38918e-06	3.01782e-08
2	1	0	1	1	421.918	-0.298175	-0.298381	-3.91592e-05	2	-6.38937e-06	1.16844e-08
2	1	0	0	1	421.922	-0.294777	-0.294945	3.05371e-05	2	-6.38934e-06	9.00677e-09
2	1	0	1	1	421.925	-0.291378	-0.291556	9.47037e-05	2	-6.38909e-06	2.76115e-08
2	1	0	1	1	421.928	-0.288179	-0.288338	0.000158167	2	-6.38866e-06	4.56056e-08
2	1	0	0	1	421.932	-0.284781	-0.284939	0.000224909	2	-6.38797e-06	6.40851e-08
2	1	0	1	1	421.935	-0.281382	-0.281547	0.000289107	2	-6.38706e-06	8.13974e-08
2	1	0	1	1	421.938	-0.278183	-0.278366	0.000347722	2	-6.386e-06	9.67942e-08
2	1	0	0	1	421.942	-0.274784	-0.274975	0.00041201	2	-6.38467e-06	1.13292e-07
2	1	0	1	1	421.945	-0.271386	-0.271574	0.000479746	2	-6.38312e-06	1.30286e-07
2	1	0	1	1	421.948	-0.268187	-0.26838	0.000542667	2	-6.38145e-06	1.45641e-07
2	1	0	0	1	421.952	-0.264788	-0.264986	0.000609761	2	-6.37945e-06	1.61578e-07
2	1	0	1	1	421.955	-0.261389	-0.261549	0.000677071	2	-6.37723e-06	1.77087e-07
2	1	0	1	1	421.958	-0.258191	-0.258371	0.000738947	2	-6.37493e-06	1.90923e-07
2	1	0	0	1	421.962	-0.254748	-0.254936	0.000812256	2	-6.37226e-06	2.07073e-07
2	1	0	0	1	421.965	-0.251527	-0.251704	0.000877563	2	-6.36952e-06	2.20886e-07
2	1	0	1	1	421.968	-0.248128	-0.248322	0.000941281	2	-6.36639e-06	2.33741e-07
2	1	0	0	1	421.972	-0.244729	-0.244924	0.0010063	2	-6.36304e-06	2.46467e-07
2	1	0	0	1	421.975	-0.24153	-0.241718	0.00106756	2	-6.35969e-06	2.58049e-07
2	1	0	1	1	421.978	-0.238132	-0.238323	0.00113283	2	-6.35591e-06	2.69981e-07
2	1	0	0	1	421.982	-0.234733	-0.234928	0.00119414	2	-6.35192e-06	2.80537e-07
2	1	0	0	1	421.985	-0.231534	-0.231736	0.00125009	2	-6.34798e-06	2.89691e-07
2	1	0	1	1	421.988	-0.228135	-0.228347	0.00131307	2	-6.34358e-06	2.99835e-07
2	1	0	0	1	421.992	-0.224737	-0.224958	0.00137364	2	-6.33898e-06	3.09013e-07
2	1	0	0	1	421.995	-0.221538	-0.221745	0.00143015	2	-6.33446e-06	3.17128e-07
2	1	0	1	1	421.998	-0.218139	-0.218336	0.00148726	2	-6.32946e-06	3.24721e-07
2	1	0	0	1	422.002	-0.214741	-0.214946	0.00154185	2	-6.32428e-06	3.31416e-07
2	1	0	0	1	422.005	-0.211542	-0.211728	0.00159438	2	-6.31923e-06	3.37575e-07
2	1	0	1	1	422.008	-0.208143	-0.208314	0.0016476	2	-6.31368e-06	3.43218e-07
2	1	0	0	1	422.012	-0.204744	-0.204936	0.0016966	2	-6.30796e-06	3.47694e-07
2	1	0	0	1	422.015	-0.201546	-0.201728	0.00174066	2	-6.30243e-06	3.5114e-07
2	1	0	1	1	422.018	-0.198147	-0.198319	0.00178914	2	-6.29639e-06	3.54821e-07
2	1	0	0	1	422.022	-0.194748	-0.194933	0.00183271	2	-6.2902e-06	3.57255e-07
2	1	0	0	1	422.025	-0.191549	-0.191726	0.00187272	2	-6.28424e-06	3.5905e-07
2	1	0	1	1	422.028	-0.188151	-0.188315	0.00191222	2	-6.27777e-06	3.60099e-07
2	1	0	0	1	422.032	-0.184752	-0.18495	0.00195234	2	-6.27116e-06	3.61087e-07
2	1	0	0	1	422.035	-0.181553	-0.18175	0.00199222	2	-6.26482e-06	3.62087e-07
2	1	0	1	1	422.038	-0.178155	-0.178347	0.00203126	2	-6.25794e-06	3.62269e-07
2	1	0	0	1	422.042	-0.174756	-0.174942	0.00206917	2	-6.25094e-06	3.61985e-07
2	1	0	0	1	422.045	-0.171557	-0.171732	0.00210425	2	-6.24423e-06	3.61367e-07
2	1	0	1	1	422.048	-0.168158	-0.168344	0.00213964	2	-6.23698e-06	3.60197e-07
2	1	0	0	1	422.052	-0.16476	-0.164945	0.00217234	2	-6.22962e-06	3.58318e-07
2	1	0	0	1	422.055	-0.161561	-0.161732	0.00220213	2	-6.22259e-06	3.56155e-07
2	1	0	1	1	422.058	-0.158162	-0.158329	0.00223701	2	-6.21501e-06	3.54183e-07
2	1	0	0	1	422.062	-0.154763	-0.154933	0.00226801	2	-6.20732e-06	3.51389e-07
2	1	0	0	1	422.065	-0.151565	-0.151736	0.00229619	2	-6.19998e-06	3.48414e-07
2	1	0	1	1	422.068	-0.148166	-0.148347	0.00232467	2	-6.19209e-06	3.44857e-07
2	1	0	0	1	422.072	-0.144767	-0.144959	0.00235556	2	-6.1841e-06	3.4146e-07
2	1	0	0	1	422.075	-0.141568	-0.141744	0.00238199	2	-6.17649e-06	3.37632e-07
2	1	0	1	1	422.078	-0.13817	-0.138346	0.00241117	2	-6.16831e-06	3.33575e-07
2	1	0	0	1	422.082	-0.134771	-0.134938	0.00243695	2	-6.16004e-06	3.28836e-07
2	1	0	0	1	422.085	-0.131572	-0.131736	0.00246227	2	-6.15217e-06	3.24368e-07
2	1	0	1	1	422.088	-0.128174	-0.128343	0.00248551	2	-6.14372e-06	3.18996e-07
2	1	0	0	1	422.092	-0.124775	-0.124924	0.00251165	2	-6.1352e-06	3.13766e-07
2	1	0	0	1	422.095	-0.121576	-0.121716	0.0025319	2	-6.1271e-06	3.08172e-07
2	1	0	1	1	422.098	-0.118177	-0.118313	0.00255756	2	-6.11841e-06	3.02593e-07
2	1	0	0	1	422.102	-0.114779	-0.114927	0.00258012	2	-6.10965e-06	2.96527e-07
2	1	0	0	1	422.105	-0.11158	-0.11171	0.00260024	2	-6.10133e-06	2.90473e-07
2	1	0	1	1	422.108	-0.108181	-0.108324	0.00262122	2	-6.09242e-06	2.83942e-07
2	1	0	0	1	422.112	-0.104783	-0.104934	0.00264079	2	-6.08344e-06	2.77107e-07
2	1	0	0	1	422.115	-0.101584	-0.101746	0.00265928	2	-6.07493e-06	2.70571e-07
2	1	0	1	1	422.118	-0.098185	-0.098361	0.00267499	2	-6.06583e-06	2.63115e-07
2	1	0	0	1	422.122	-0.0947863	-0.0949502	0.00269558	2	-6.05667e-06	2.55946e-07
2	1	0	0	1	422.125	-0.0915875	-0.0917498	0.00271701	2	-6.04798e-06	2.49285e-07
2	1	0	1	1	422.128	-0.0881888	-0.0883541	0.00273314	2	-6.03867e-06	2.41484e-07
2	1	0	0	1	422.132	-0.0847901	-0.0849759	0.00274948	2	-6.02932e-06	2.3364e-07
2	1	0	0	1	422.135	-0.0815691	-0.0817565	0.00276824	2	-6.02047e-06	2.26322e-07
2	1	0	1	1	422.138	-0.078126	-0.0783157	0.00279268	2	-6.01098e-06	2.18711e-07
2	1	0	1	1	422.142	-0.0749272	-0.0751047	0.00280759	2	-6.00199e-06	2.10863e-07
2	1	0	0	1	422.145	-0.0715285	-0.0716943	0.00282304	2	-5.99238e-06	2.02396e-07
2	1	0	1	1	422.148	-0.0681298	-0.0683057	0.0028336	2	-5.98274e-06	1.93551e-07
2	1	0	1	1	422.152	-0.064931	-0.0651152	0.00284406	2	-5.97362e-06	1.85192e-07
2	1	0	0	1	422.155	-0.0615323	-0.0617215	0.00285633	2	-5.9639e-06	1.76297e-07
2	1	0	1	1	422.158	-0.0581336	-0.0583139	0.00287065	2	-5.95413e-06	1.67399e-07
2	1	0	1	1	422.162	-0.0549348	-0.0551279	0.00288171	2	-5.9449e-06	1.58863e-07
2	1	0	0	1	422.165	-0.0515361	-0.0517376	0.00289353	2	-5.93505e-06	1.49704e-07
2	1	0	1	1	422.168	-0.0481374	-0.0483173	0.00290725	2	-5.92516e-06	1.4047e-07
2	1	0	1	1	422.172	-0.0449386	-0.0451327	0.00291304	2	-5.91582e-06	1.31473e-07
2	1	0	0	1	422.175	-0.0415399	-0.0417316	0.00292472	2	-5.90586e-06	1.22053e-07
2	1	0	1	1	422.178	-0.0381412	-0.0383152	0.00293895	2	-5.89586e-06	1.12606e-07
2	1	0	1	1	422.182	-0.0349425	-0.0351118	0.00294377	2	-5.88642e-06	1.03361e-07
2	1	0	0	1	422.185	-0.0315438	-0.0317069	0.00295259	2	-5.87636e-06	9.36173e-08
2	1	0	1	1	422.188	-0.0281451	-0.0283079	0.00295885	2	-5.86629e-06	8.37588e-08
2	1	0	1	1	422.192	-0.0249463	-0.025096	0.00296392	2	-5.85678e-06	7.43826e-08
2	1	0	0	1	422.195	-0.0215476	-0.0217045	0.00296884	2	-5.84666e-06	6.44373e-08
2	1	0	1	1	422.198	-0.0181489	-0.0183172	0.00297306	2	-5.83653e-06	5.44582e-08
2	1	0	1	1	422.202	-0.0149501	-0.0151292	0.00297692	2	-5.82698e-06	4.50383e-08
2	1	0	0	1	422.205	-0.0115514	-0.0117373	0.00298141	2	-5.81682e-06	3.49936e-08
2	1	0	1	1	422.208	-0.00815267	-0.00834028	0.0029853	2	-5.80665e-06	2.48983e-08
2	1	0	1	1	422.212	-0.00495389	-0.00514754	0.00298829	2	-5.79706e-06	1.53824e-08
2	1	0	0	1	422.215	-0.00154775	-0.00173478	0.00298938	2	-5.78687e-06	5.18592e-09
2	1	0	1	1	422.218	0.00184351	0.00168535	0.00299635	2	-5.77666e-06	5.04991e-09
2	1	0	1	1	422.222	0.00504229	0.0048959	0.00299859	2	-5.76704e-06	1.46808e-08
2	1	0	0	1	422.225	0.008441	0.00828589	0.00299632	2	-5.75682e-06	2.48272e-08
2	1	0	1	1	422.228	0.0118397	0.0116997	0.00299717	2	-5.7466e-06	3.50659e-08
2	1	0	1	1	422.232	0.0150385	0.0149143	0.00299957	2	-5.73697e-06	4.47364e-08
2	1	0	0	1	422.235	0.0184372	0.0183195	0.00299802	2	-5.72674e-06	5.49223e-08
2	1	0	1	1	422.238	0.0218359	0.0216957	0.00299824	2	-5.71652e-06	6.50488e-08
2	1	0	1	1	422.242	0.0250347	0.0248967	0.00299701	2	-5.70691e-06	7.46156e-08
2	1	0	0	1	422.245	0.0284334	0.0282873	0.0029962	2	-5.69669e-06	8.47543e-08
2	1	0	1	1	422.248	0.0318321	0.0316994	0.0029957	2	-5.68647e-06	9.49621e-08
2	1	0	1	1	422.252	0.0350308	0.0348977	0.00299513	2	-5.67686e-06	1.04523e-07
2	1	0	0	1	422.255	0.0384296	0.0382986	0.00299311	2	-5.66665e-06	1.14632e-07
2	1	0	1	1	422.258	0.0418283	0.0416819	0.0029928	2	-5.65645e-06	1.24746e-07
2	1	0	1	1	422.262	0.045027	0.0448912	0.00299437	2	-5.64684e-06	1.34421e-07
2	1	0	0	1	422.265	0.0484257	0.0483227	0.00299499	2	-5.63662e-06	1.44726e-07
2	1	0	1	1	422.268	0.0518244	0.0517142	0.0029922	2	-5.62642e-06	1.54739e-07
2	1	0	1	1	422.272	0.0550232	0.0549287	0.00299091	2	-5.61682e-06	1.64287e-07
2	1	0	0	1	422.275	0.0584219	0.0583161	0.00299027	2	-5.60662e-06	1.74381e-07
2	1	0	1	1	422.278	0.0618206	0.0617094	0.0029859	2	-5.59643e-06	1.84258e-07
2	1	0	1	1	422.282	0.0650194	0.0649189	0.00298639	2	-5.58685e-06	1.93873e-07
2	1	0	0	1	422.285	0.0684181	0.0682877	0.00298399	2	-5.57666e-06	2.03769e-07
2	1	0	1	1	422.288	0.0718168	0.0716801	0.00298119	2	-5.56649e-06	2.13692e-07
2	1	0	1	1	422.292	0.0750156	0.0748903	0.00298314	2	-5.55692e-06	2.23408e-07
2	1	0	0	1	422.295	0.0784143	0.0783103	0.00298634	2	-5.54674e-06	2.33861e-07
2	1	0	1	1	422.298	0.081813	0.0816878	0.0029853	2	-5.53656e-06	2.43862e-07
2	1	0	1	1	422.302	0.0850118	0.0848804	0.00298443	2	-5.52698e-06	2.5332e-07
2	1	0	0	1	422.305	0.0884105	0.0882703	0.002982	2	-5.51681e-06	2.63222e-07
2	1	0	1	1	422.308	0.0918092	0.0916814	0.00298386	2	-5.50664e-06	2.73565e-07
2	1	0	1	1	422.312	0.0950746	0.0949578	0.00299433	2	-5.49704e-06	2.84335e-07
2	1	0	0	1	422.315	0.0982785	0.0981524	0.00299731	2	-5.48743e-06	2.94193e-07
2	0	0	0	1	422.317	0.0999061	0.0998222	0.00296922	2	-5.48173e-06	2.96394e-07
2	0	0	0	1	422.319	0.0980068	0.0978997	0.00231195	2	-5.47719e-06	2.26339e-07
2	0	0	0	1	422.322	0.0947858	0.0946659	0.00152365	2	-5.47117e-06	1.44238e-07
2	0	0	1	1	422.325	0.0913427	0.0912065	0.000956674	2	-5.46706e-06	8.72548e-08
2	0	0	1	1	422.328	0.0881439	0.0879976	0.000582704	2	-5.46466e-06	5.12765e-08
2	0	0	0	1	422.332	0.0847452	0.0846203	0.000290791	2	-5.46324e-06	2.46068e-08
2	0	0	1	1	422.335	0.0813465	0.0812134	6.07259e-05	2	-5.4627e-06	4.93176e-09
2	0	0	1	1	422.338	0.0781477	0.0780293	-0.00011379	2	-5.46283e-06	8.87897e-09
2	0	0	0	1	422.342	0.074749	0.0746276	-0.00027276	2	-5.46354e-06	2.03554e-08
2	0	0	1	1	422.345	0.0713503	0.0712245	-0.000407237	2	-5.46474e-06	2.90053e-08
2	0	0	1	1	422.348	0.0681515	0.0680127	-0.000516583	2	-5.46626e-06	3.51342e-08
2	0	0	0	1	422.352	0.0647528	0.0646161	-0.000622524	2	-5.46824e-06	4.02251e-08
2	0	0	1	1	422.355	0.0613541	0.0612339	-0.000717905	2	-5.47055e-06	4.39601e-08
2	0	0	1	1	422.358	0.0581554	0.0580443	-0.00079776	2	-5.47301e-06	4.63054e-08
2	0	0	0	1	422.362	0.0547567	0.0546276	-0.000882994	2	-5.47591e-06	4.82359e-08
2	0	0	1	1	422.365	0.051358	0.0512281	-0.000959905	2	-5.47908e-06	4.91741e-08
2	0	0	1	1	422.368	0.0481592	0.0480261	-0.00102716	2	-5.48229e-06	4.93306e-08
2	0	0	0	1	422.372	0.0447605	0.0446284	-0.00109926	2	-5.48595e-06	4.90582e-08
2	0	0	1	1	422.375	0.0413618	0.0412087	-0.00116561	2	-5.48984e-06	4.80333e-08
2	0	0	1	1	422.378	0.038163	0.0380025	-0.00122362	2	-5.4937e-06	4.65008e-08
2	0	0	0	1	422.382	0.0347643	0.034607	-0.001284	2	-5.498e-06	4.44353e-08
2	0	0	1	1	422.385	0.0313656	0.0312131	-0.00134337	2	-5.5025e-06	4.19306e-08
2	0	0	1	1	422.388	0.0281668	0.0280112	-0.00139624	2	-5.50691e-06	3.91104e-08
2	0	0	0	1	422.392	0.0247681	0.024611	-0.00145178	2	-5.51179e-06	3.57299e-08
2	0	0	1	1	422.395	0.0213694	0.0212172	-0.00150246	2	-5.51685e-06	3.18781e-08
2	0	0	1	1	422.398	0.0181706	0.0180241	-0.00155373	2	-5.52177e-06	2.80045e-08
2	0	0	0	1	422.402	0.0147719	0.0146296	-0.00160302	2	-5.52718e-06	2.34517e-08
2	0	0	1	1	422.405	0.0113732	0.0112089	-0.00165582	2	-5.53275e-06	1.85598e-08
2	0	0	1	1	422.408	0.00817443	0.00798867	-0.0017025	2	-5.53816e-06	1.36007e-08
2	0	0	0	1	422.412	0.00477573	0.00460847	-0.00174882	2	-5.54406e-06	8.05939e-09
2	0	0	1	1	422.415	0.00137703	0.00118579	-0.00180002	2	-5.55013e-06	2.13444e-09
2	0	0	1	1	422.418	-0.00182175	-0.00202424	-0.00184528	2	-5.55599e-06	3.73529e-09
2	0	0	0	1	422.422	-0.00522046	-0.0054136	-0.00188699	2	-5.56238e-06	1.02154e-08
2	0	0	1	1	422.425	-0.00861916	-0.00881886	-0.00193362	2	-5.56891e-06	1.70523e-08
2	0	0	1	1	422.428	-0.0118179	-0.0120211	-0.00197485	2	-5.57519e-06	2.374e-08
2	0	0	0	1	422.432	-0.0152166	-0.0154166	-0.00201926	2	-5.58202e-06	3.11301e-08
2	0	0	1	1	422.435	-0.0186154	-0.0188048	-0.00206097	2	-5.58899e-06	3.87562e-08
2	0	0	1	1	422.438	-0.0218141	-0.0220162	-0.00210021	2	-5.59568e-06	4.62388e-08
2	0	0	0	1	422.442	-0.0252128	-0.0254057	-0.0021425	2	-5.60293e-06	5.44317e-08
2	0	0	1	1	422.445	-0.0286115	-0.0288015	-0.00218501	2	-5.61032e-06	6.29316e-08
2	0	0	1	1	422.448	-0.0318103	-0.0319918	-0.0022261	2	-5.61741e-06	7.12168e-08
2	0	0	0	1	422.452	-0.035209	-0.0353933	-0.00226829	2	-5.62509e-06	8.02825e-08
2	0	0	1	1	422.455	-0.0386077	-0.0388088	-0.00230895	2	-5.6329e-06	8.96076e-08
2	0	0	1	1	422.458	-0.0418065	-0.0420116	-0.0023509	2	-5.64038e-06	9.87649e-08
2	0	0	0	1	422.462	-0.0452052	-0.0454108	-0.00238983	2	-5.64848e-06	1.08524e-07
2	0	0	1	1	422.465	-0.0486039	-0.0488072	-0.00242774	2	-5.6567e-06	1.18491e-07
2	0	0	1	1	422.468	-0.0518027	-0.0520053	-0.00246635	2	-5.66456e-06	1.28263e-07
2	0	0	0	1	422.472	-0.0552014	-0.0554202	-0.00250681	2	-5.67306e-06	1.38928e-07
2	0	0	1	1	422.475	-0.0586001	-0.0588043	-0.00254495	2	-5.68168e-06	1.49654e-07
2	0	0	1	1	422.478	-0.0617989	-0.0619953	-0.00258175	2	-5.68991e-06	1.60057e-07
2	0	0	0	1	422.482	-0.0651976	-0.0653844	-0.0026197	2	-5.69879e-06	1.71288e-07
2	0	0	1	1	422.485	-0.0685963	-0.068805	-0.00265879	2	-5.70779e-06	1.82938e-07
2	0	0	1	1	422.488	-0.0717951	-0.0719936	-0.00269502	2	-5.71639e-06	1.94024e-07
2	0	0	0	1	422.492	-0.0751938	-0.0753995	-0.00273636	2	-5.72566e-06	2.0632e-07
2	0	0	1	1	422.495	-0.0785925	-0.078794	-0.00277492	2	-5.73506e-06	2.18647e-07
2	0	0	1	1	422.498	-0.0818579	-0.0820653	-0.00281922	2	-5.74405e-06	2.3136e-07
2	0	0	0	1	422.502	-0.0852566	-0.0854564	-0.00285326	2	-5.75372e-06	2.43829e-07
2	0	0	0	1	422.505	-0.0884554	-0.0886555	-0.00288853	2	-5.76294e-06	2.56084e-07
2	0	0	1	1	422.508	-0.0918541	-0.0920365	-0.0029239	2	-5.77285e-06	2.69105e-07
2	0	0	0	1	422.512	-0.0952528	-0.0954449	-0.00296138	2	-5.78289e-06	2.82648e-07
2	0	0	0	1	422.515	-0.0984516	-0.0986415	-0.00299767	2	-5.79246e-06	2.95695e-07
2	0	0	1	1	422.518	-0.10185	-0.10204	-0.00303452	2	-5.80275e-06	3.09642e-07
2	0	0	0	1	422.522	-0.105249	-0.105438	-0.00307124	2	-5.81316e-06	3.23825e-07
2	0	0	0	1	422.525	-0.108448	-0.108627	-0.00310601	2	-5.82308e-06	3.37395e-07
2	0	0	1	1	422.528	-0.111846	-0.112028	-0.00314385	2	-5.83374e-06	3.52198e-07
2	0	0	0	1	422.532	-0.115245	-0.115412	-0.00318435	2	-5.84453e-06	3.67512e-07
2	0	0	0	1	422.535	-0.118444	-0.118632	-0.00322086	2	-5.85481e-06	3.82096e-07
2	0	0	1	1	422.538	-0.121843	-0.122018	-0.00326014	2	-5.86587e-06	3.97794e-07
2	0	0	0	1	422.542	-0.125241	-0.125437	-0.00329901	2	-5.87705e-06	4.13816e-07
2	0	0	0	1	422.545	-0.12844	-0.128652	-0.00333753	2	-5.8877e-06	4.2938e-07
2	0	0	1	1	422.548	-0.131839	-0.132042	-0.0033754	2	-5.89915e-06	4.45693e-07
2	0	0	0	1	422.552	-0.135238	-0.135429	-0.00341135	2	-5.91072e-06	4.61996e-07
2	0	0	0	1	422.555	-0.138436	-0.138649	-0.00345028	2	-5.92173e-06	4.78379e-07
2	0	0	1	1	422.558	-0.141835	-0.142037	-0.0034879	2	-5.93356e-06	4.95412e-07
2	0	0	0	1	422.562	-0.145234	-0.145441	-0.00352692	2	-5.94552e-06	5.1296e-07
2	0	0	0	1	422.565	-0.148433	-0.148638	-0.00356336	2	-5.95689e-06	5.2965e-07
2	0	0	1	1	422.568	-0.151831	-0.152036	-0.00360184	2	-5.96911e-06	5.4761e-07
2	0	0	0	1	422.572	-0.15523	-0.155403	-0.00363975	2	-5.98145e-06	5.65627e-07
2	0	0	0	1	422.575	-0.158429	-0.158624	-0.00367956	2	-5.99319e-06	5.83668e-07
2	0	0	1	1	422.578	-0.161827	-0.162026	-0.00372061	2	-6.00581e-06	6.02836e-07
2	0	0	0	1	422.582	-0.165226	-0.165438	-0.00375735	2	-6.01856e-06	6.21608e-07
2	0	0	0	1	422.585	-0.168425	-0.168645	-0.00379755	2	-6.03068e-06	6.40438e-07
2	0	0	1	1	422.588	-0.171824	-0.172035	-0.00383689	2	-6.0437e-06	6.6008e-07
2	0	0	0	1	422.592	-0.175222	-0.175439	-0.00387537	2	-6.05684e-06	6.79894e-07
2	0	0	0	1	422.595	-0.178421	-0.178637	-0.00391053	2	-6.06933e-06	6.98565e-07
2	0	0	1	1	422.598	-0.18182	-0.182041	-0.00395557	2	-6.08274e-06	7.20077e-07
2	0	0	0	1	422.602	-0.185219	-0.18545	-0.00399475	2	-6.09629e-06	7.40827e-07
2	0	0	0	1	422.605	-0.188417	-0.188637	-0.00403484	2	-6.10916e-06	7.6112e-07
2	0	0	1	1	422.608	-0.191816	-0.192014	-0.00407287	2	-6.12298e-06	7.82049e-07
2	0	0	0	1	422.612	-0.195215	-0.195423	-0.0041146	2	-6.13694e-06	8.04086e-07
2	0	0	0	1	422.615	-0.198413	-0.198615	-0.00415284	2	-6.1502e-06	8.24816e-07
2	0	0	1	1	422.618	-0.201812	-0.202028	-0.00419842	2	-6.16443e-06	8.48199e-07
2	0	0	0	1	422.622	-0.205211	-0.205403	-0.00424094	2	-6.17881e-06	8.71102e-07
2	0	0	0	1	422.625	-0.20841	-0.208608	-0.0042814	2	-6.19248e-06	8.93136e-07
2	0	0	1	1	422.628	-0.211808	-0.212042	-0.00433145	2	-6.20716e-06	9.1845e-07
2	0	0	0	1	422.632	-0.215207	-0.215426	-0.00437612	2	-6.22199e-06	9.42733e-07
2	0	0	0	1	422.635	-0.218406	-0.21862	-0.00441832	2	-6.23609e-06	9.65934e-07
2	0	0	1	1	422.638	-0.221805	-0.222026	-0.00446698	2	-6.25124e-06	9.91788e-07
2	0	0	0	1	422.642	-0.225203	-0.22544	-0.00451564	2	-6.26654e-06	1.01801e-06
2	0	0	0	1	422.645	-0.228402	-0.228632	-0.00456077	2	-6.28109e-06	1.04274e-06
2	0	0	1	1	422.648	-0.231801	-0.232046	-0.00461126	2	-6.29672e-06	1.07003e-06
2	0	0	0	1	422.652	-0.235199	-0.23542	-0.00466118	2	-6.31252e-06	1.09733e-06
2	0	0	0	1	422.655	-0.238398	-0.238616	-0.0047114	2	-6.32755e-06	1.12422e-06
2	0	0	1	1	422.658	-0.241797	-0.241998	-0.00476406	2	-6.3437e-06	1.15289e-06
2	0	0	0	1	422.662	-0.245196	-0.245413	-0.00482374	2	-6.36003e-06	1.18381e-06
2	0	0	0	1	422.665	-0.248394	-0.248617	-0.00487965	2	-6.37559e-06	1.21316e-06
2	0	0	1	1	422.668	-0.251793	-0.252013	-0.0049359	2	-6.39231e-06	1.24391e-06
2	0	0	0	1	422.672	-0.255125	-0.25535	-0.00500065	2	-6.40874e-06	1.27691e-06
2	0	0	0	1	422.675	-0.258457	-0.258669	-0.00506368	2	-6.42539e-06	1.30981e-06
2	0	0	1	1	422.678	-0.261856	-0.26205	-0.00512134	2	-6.44274e-06	1.34205e-06
2	0	0	1	1	422.682	-0.265055	-0.26528	-0.00518316	2	-6.45926e-06	1.37499e-06
2	0	0	0	1	422.685	-0.268453	-0.268674	-0.00524723	2	-6.47703e-06	1.40979e-06
2	0	0	1	1	422.688	-0.271852	-0.27206	-0.00531207	2	-6.49501e-06	1.4452e-06
2	0	0	1	1	422.692	-0.275051	-0.275258	-0.00537588	2	-6.51215e-06	1.47975e-06
2	0	0	0	1	422.695	-0.27845	-0.278643	-0.00544284	2	-6.53058e-06	1.51661e-06
2	0	0	1	1	422.698	-0.281848	-0.282041	-0.00551419	2	-6.54924e-06	1.55523e-06
2	0	0	1	1	422.702	-0.285047	-0.28522	-0.00558151	2	-6.56703e-06	1.59196e-06
2	0	0	0	1	422.705	-0.288446	-0.28865	-0.00565799	2	-6.58618e-06	1.63318e-06
2	0	0	1	1	422.708	-0.291845	-0.292037	-0.00573018	2	-6.60557e-06	1.67343e-06
2	0	0	1	1	422.712	-0.295043	-0.295248	-0.00579868	2	-6.62405e-06	1.71205e-06
2	0	0	0	1	422.715	-0.298442	-0.298674	-0.00587625	2	-6.64394e-06	1.75508e-06
2	0	0	1	1	422.718	-0.301841	-0.30209	-0.0059499	2	-6.66408e-06	1.79741e-06
2	0	0	1	1	422.722	-0.30504	-0.305265	-0.00601788	2	-6.68326e-06	1.83705e-06
2	0	0	0	1	422.725	-0.308438	-0.308663	-0.00609505	2	-6.7039e-06	1.88132e-06
2	0	0	1	1	422.728	-0.311837	-0.312094	-0.00617053	2	-6.72479e-06	1.92579e-06
2	0	0	1	1	422.732	-0.315036	-0.315274	-0.00623745	2	-6.74467e-06	1.9665e-06
2	0	0	0	1	422.735	-0.318434	-0.318692	-0.00631238	2	-6.76605e-06	2.0117e-06
2	0	0	1	1	422.738	-0.321833	-0.322049	-0.00638423	2	-6.78767e-06	2.05603e-06
2	0	0	1	1	422.742	-0.325032	-0.325241	-0.00645287	2	-6.80824e-06	2.09874e-06
2	0	0	0	1	422.745	-0.328431	-0.328659	-0.00652461	2	-6.83035e-06	2.14437e-06
2	0	0	1	1	422.748	-0.331829	-0.332064	-0.00659921	2	-6.85269e-06	2.19136e-06
2	0	0	1	1	422.752	-0.335028	-0.335257	-0.00666728	2	-6.87395e-06	2.23525e-06
2	0	0	0	1	422.755	-0.338427	-0.338656	-0.00673672	2	-6.89678e-06	2.28143e-06
2	0	0	1	1	422.758	-0.341825	-0.34208	-0.00680584	2	-6.91984e-06	2.32815e-06
2	0	0	1	1	422.762	-0.345024	-0.345282	-0.00687073	2	-6.94176e-06	2.37234e-06
2	0	0	0	1	422.765	-0.348423	-0.348673	-0.00693478	2	-6.96526e-06	2.41797e-06
2	0	0	1	1	422.768	-0.351822	-0.352083	-0.00700121	2	-6.98899e-06	2.46501e-06
2	0	0	1	1	422.772	-0.35502	-0.355281	-0.00706457	2	-7.01153e-06	2.50991e-06
2	0	0	0	1	422.775	-0.358419	-0.358674	-0.00712752	2	-7.0357e-06	2.55645e-06
2	0	0	1	1	422.778	-0.361818	-0.362053	-0.0071895	2	-7.06007e-06	2.60298e-06
2	0	0	1	1	422.782	-0.365017	-0.36527	-0.0072471	2	-7.0832e-06	2.64715e-06
2	0	0	0	1	422.785	-0.368415	-0.36865	-0.00730443	2	-7.10797e-06	2.69278e-06
2	0	0	1	1	422.788	-0.371814	-0.372061	-0.00736593	2	-7.13295e-06	2.74057e-06
2	0	0	1	1	422.792	-0.375013	-0.37526	-0.00742096	2	-7.15664e-06	2.78479e-06
2	0	0	0	1	422.795	-0.378412	-0.378663	-0.00747822	2	-7.18201e-06	2.83173e-06
2	0	0	1	1	422.798	-0.38181	-0.382074	-0.00753859	2	-7.20757e-06	2.8803e-06
2	0	0	1	1	422.802	-0.385009	-0.38529	-0.00759482	2	-7.23182e-06	2.92621e-06
2	0	0	0	1	422.805	-0.388408	-0.388666	-0.0076471	2	-7.25777e-06	2.97217e-06
2	0	0	1	1	422.808	-0.391806	-0.392079	-0.0077026	2	-7.28389e-06	3.02003e-06
2	0	0	1	1	422.812	-0.395005	-0.395281	-0.00775905	2	-7.30867e-06	3.06701e-06
2	0	0	0	1	422.815	-0.398404	-0.398677	-0.00781287	2	-7.33518e-06	3.11481e-06
2	0	0	1	1	422.818	-0.401803	-0.402062	-0.00786795	2	-7.36187e-06	3.1634e-06
2	0	0	1	1	422.822	-0.405001	-0.405249	-0.00791451	2	-7.38716e-06	3.20735e-06
2	0	0	0	1	422.825	-0.4084	-0.408667	-0.00797252	2	-7.4142e-06	3.25811e-06
2	0	0	1	1	422.828	-0.411799	-0.412049	-0.00803002	2	-7.44144e-06	3.30876e-06
2	0	0	1	1	422.832	-0.414998	-0.415245	-0.00808515	2	-7.46726e-06	3.35732e-06
2	0	0	0	1	422.835	-0.418396	-0.418665	-0.0081408	2	-7.49489e-06	3.40827e-06
2	0	0	1	1	422.838	-0.421795	-0.422063	-0.00820111	2	-7.5227e-06	3.46139e-06
2	0	0	1	1	422.842	-0.424994	-0.425275	-0.00825576	2	-7.54907e-06	3.51097e-06
2	0	0	0	1	422.845	-0.428392	-0.428632	-0.00831649	2	-7.57728e-06	3.56472e-06
2	0	0	1	1	422.848	-0.431748	-0.431995	-0.00838355	2	-7.60486e-06	3.62165e-06
2	0	0	1	1	422.852	-0.435057	-0.435281	-0.00844231	2	-7.63267e-06	3.67477e-06
2	0	0	0	1	422.855	-0.438455	-0.438707	-0.00850925	2	-7.66152e-06	3.73307e-06
2	0	0	0	1	422.858	-0.441654	-0.4419	-0.0085643	2	-7.68887e-06	3.78457e-06
2	0	0	1	1	422.862	-0.445053	-0.445286	-0.00863082	2	-7.71814e-06	3.84318e-06
2	0	0	0	1	422.865	-0.448451	-0.448675	-0.00869369	2	-7.74763e-06	3.90064e-06
2	0	0	0	1	422.868	-0.45165	-0.451865	-0.00875887	2	-7.77559e-06	3.95783e-06
2	0	0	1	1	422.872	-0.455049	-0.455277	-0.0088273	2	-7.80553e-06	4.01887e-06
2	0	0	0	1	422.875	-0.458448	-0.4587	-0.00890435	2	-7.8357e-06	4.08443e-06
2	0	0	0	1	422.878	-0.461646	-0.461889	-0.00897345	2	-7.86434e-06	4.14474e-06
2	0	0	1	1	422.882	-0.465045	-0.46528	-0.00904249	2	-7.895e-06	4.20729e-06
2	0	0	0	1	422.885	-0.468444	-0.468701	-0.0091209	2	-7.92592e-06	4.27498e-06
2	0	0	0	1	422.888	-0.471643	-0.471895	-0.00919557	2	-7.95526e-06	4.33935e-06
2	0	0	1	1	422.892	-0.475041	-0.475281	-0.00927061	2	-7.98669e-06	4.40614e-06
2	0	0	0	1	422.895	-0.47844	-0.478694	-0.0093557	2	-8.01839e-06	4.47852e-06
2	0	0	0	1	422.898	-0.481639	-0.481895	-0.00943202	2	-8.04849e-06	4.54524e-06
2	0	0	1	1	422.902	-0.485038	-0.48528	-0.00951739	2	-8.08075e-06	4.6186e-06
2	0	0	0	1	422.905	-0.488436	-0.488683	-0.0096047	2	-8.11329e-06	4.69366e-06
2	0	0	0	1	422.908	-0.491635	-0.491879	-0.00968833	2	-8.14419e-06	4.76549e-06
2	0	0	1	1	422.912	-0.495034	-0.49529	-0.0097764	2	-8.17732e-06	4.84216e-06
2	0	0	0	1	422.915	-0.498432	-0.498687	-0.00987133	2	-8.21076e-06	4.9227e-06
2	0	0	0	1	422.918	-0.501631	-0.501895	-0.00995995	2	-8.24253e-06	4.99884e-06
2	0	0	1	1	422.922	-0.50503	-0.505279	-0.0100539	2	-8.27659e-06	5.08001e-06
2	0	0	0	1	422.925	-0.508429	-0.508691	-0.0101511	2	-8.31098e-06	5.16376e-06
2	0	0	0	1	422.928	-0.511627	-0.511902	-0.0102446	2	-8.34365e-06	5.24425e-06
2	0	0	1	1	422.947	-0.530051	-0.530252	-0.010825	2	-8.53475e-06	5.73996e-06
2	0	0	0	1	422.965	-0.548413	-0.548648	-0.0114273	2	-8.72804e-06	6.26957e-06
2	0	0	0	1	422.968	-0.551612	-0.551814	-0.0115415	2	-8.76485e-06	6.36875e-06
2	0	0	1	1	422.972	-0.555011	-0.555234	-0.0116732	2	-8.80437e-06	6.48135e-06
2	0	0	0	1	422.975	-0.55841	-0.55864	-0.0117977	2	-8.84433e-06	6.59068e-06
2	0	0	0	1	422.978	-0.561608	-0.561844	-0.0119151	2	-8.88232e-06	6.69446e-06
2	0	0	1	1	422.982	-0.565007	-0.565231	-0.0120462	2	-8.92312e-06	6.80888e-06
2	0	0	0	1	422.985	-0.568406	-0.56865	-0.0121815	2	-8.96436e-06	6.927e-06
2	0	0	0	1	422.988	-0.571605	-0.571845	-0.0123095	2	-9.0036e-06	7.03911e-06
2	0	0	1	1	422.992	-0.575003	-0.575232	-0.012447	2	-9.04575e-06	7.15994e-06
2	0	0	0	1	422.995	-0.578402	-0.578632	-0.0125858	2	-9.08835e-06	7.28254e-06
2	0	0	0	1	422.998	-0.581601	-0.581813	-0.0127168	2	-9.1289e-06	7.39881e-06
2	0	0	1	1	423.002	-0.584999	-0.585241	-0.0128637	2	-9.17245e-06	7.52839e-06
2	0	0	0	1	423.005	-0.588398	-0.588626	-0.0130126	2	-9.21649e-06	7.65953e-06
2	0	0	0	1	423.008	-0.591597	-0.591813	-0.0131485	2	-9.2584e-06	7.78148e-06
2	0	0	1	1	423.012	-0.594996	-0.595234	-0.0133046	2	-9.30343e-06	7.91935e-06
2	0	0	0	1	423.015	-0.598199	-0.598409	-0.0134477	2	-9.34627e-06	8.04722e-06
2	0	0	1	1	423.017	-0.599827	-0.600024	-0.0135071	2	-9.36918e-06	8.10459e-06