File: TAP_Report/Data/Res_PB/100 uM RS 10mM PB_08_CV_C01_2.mpt
EC-Lab ASCII FILE
Nb header lines : 53

Cyclic Voltammetry

Run on channel : 1 (SN 0696)
User :
Electrode connection : standard
Ewe ctrl range : min = -10.00 V, max = 10.00 V
Ewe,I filtering : 50 kHz
Channel : Grounded
Acquisition started on : 05/17/2017 12:53:20
Saved on :
	File : 100 uM RS 10mM PB_08_CV_C01.mpr
	Directory : \\userfs\st659\w2k\EC-Lab\Data\ITO Characterisation 17-5-17\
	Host : 144.32.136.43
Device : SP-300 (SN 0182)
Address : USB
EC-Lab for windows v10.44 (software)
Internet server v10.44 (firmware)
Command interpretor v10.44 (firmware)
Electrode material :
Initial state :
Electrolyte :
Comments :
Cable : standard
Electrode surface area : 0.001 cm²
Characteristic mass : 0.001 g
Equivalent Weight : 0.000 g/eq.
Density : 0.000 g/cm3
Ei (V)              0.000
vs.                 Eoc
dE/dt               5000.000
dE/dt unit          mV/s
E1 (V)              0.100
vs.                 Ref
Step percent        50
N                   10
E range min (V)     -10.000
E range max (V)     10.000
I Range             Auto
I Range min         Unset
I Range max         Unset
I Range init        Unset
Bandwidth           8
E2 (V)              -0.600
vs.                 Ref
nc cycles           2
Reverse Scan        1
Ef (V)              0.000
vs.                 Eoc

mode	ox/red	error	control changes	counter inc.	time/s	control/V	Ewe/V	<I>/mA	cycle number	(Q-Qo)/C	P/W
2	1	0	0	1	427.825	-0.599494	-0.599783	-0.0244846	2	-2.25301e-06	1.46854e-05
2	1	0	1	1	427.826	-0.593996	-0.594285	-0.0226156	2	-2.27805e-06	1.34401e-05
2	1	0	1	1	427.828	-0.584	-0.58429	-0.0196553	2	-2.32e-06	1.14844e-05
2	1	0	1	1	427.83	-0.574004	-0.574282	-0.0171446	2	-2.35654e-06	9.84581e-06
2	1	0	1	1	427.832	-0.564007	-0.564298	-0.0149621	2	-2.38842e-06	8.44308e-06
2	1	0	1	1	427.834	-0.554011	-0.554286	-0.0130262	2	-2.4162e-06	7.22024e-06
2	1	0	1	1	427.836	-0.544015	-0.54427	-0.0113036	2	-2.44035e-06	6.15221e-06
2	1	0	1	1	427.838	-0.534019	-0.534274	-0.00975398	2	-2.46125e-06	5.2113e-06
2	1	0	1	1	427.84	-0.524023	-0.52429	-0.0083561	2	-2.47922e-06	4.38102e-06
2	1	0	1	1	427.842	-0.514027	-0.514288	-0.00707515	2	-2.49452e-06	3.63866e-06
2	1	0	1	1	427.844	-0.50403	-0.504314	-0.00590822	2	-2.50738e-06	2.97959e-06
2	1	0	1	1	427.846	-0.494034	-0.494308	-0.00483239	2	-2.51801e-06	2.38869e-06
2	1	0	1	1	427.848	-0.484038	-0.484311	-0.00384876	2	-2.52659e-06	1.864e-06
2	1	0	1	1	427.85	-0.474042	-0.474321	-0.00294029	2	-2.53329e-06	1.39464e-06
2	1	0	1	1	427.852	-0.464046	-0.464283	-0.00209373	2	-2.53823e-06	9.72084e-07
2	1	0	1	1	427.854	-0.454049	-0.454305	-0.00131155	2	-2.54156e-06	5.95841e-07
2	1	0	1	1	427.856	-0.444053	-0.444313	-0.000590319	2	-2.54339e-06	2.62286e-07
2	1	0	1	1	427.858	-0.434057	-0.434297	8.95899e-05	2	-2.54382e-06	3.89087e-08
2	1	0	1	1	427.86	-0.424061	-0.424318	0.000719577	2	-2.54294e-06	3.0533e-07
2	1	0	1	1	427.862	-0.414065	-0.414323	0.00130765	2	-2.54086e-06	5.41791e-07
2	1	0	1	1	427.864	-0.404068	-0.404326	0.00185981	2	-2.53763e-06	7.51972e-07
2	1	0	1	1	427.866	-0.394072	-0.394355	0.00237843	2	-2.53334e-06	9.37948e-07
2	1	0	1	1	427.868	-0.384076	-0.384347	0.00287048	2	-2.52804e-06	1.10326e-06
2	1	0	1	1	427.87	-0.37408	-0.374346	0.00333236	2	-2.52179e-06	1.24745e-06
2	1	0	1	1	427.872	-0.364084	-0.364339	0.00377186	2	-2.51464e-06	1.37423e-06
2	1	0	1	1	427.874	-0.354087	-0.354365	0.00418347	2	-2.50665e-06	1.48248e-06
2	1	0	1	1	427.876	-0.344091	-0.344359	0.00457513	2	-2.49785e-06	1.57549e-06
2	1	0	1	1	427.878	-0.334095	-0.334333	0.00495697	2	-2.48828e-06	1.65728e-06
2	1	0	1	1	427.88	-0.324099	-0.324308	0.00532191	2	-2.47796e-06	1.72594e-06
2	1	0	1	1	427.882	-0.314103	-0.314355	0.00566324	2	-2.46694e-06	1.78026e-06
2	1	0	1	1	427.884	-0.304107	-0.304335	0.00600092	2	-2.45524e-06	1.82629e-06
2	1	0	1	1	427.886	-0.29411	-0.294316	0.00633094	2	-2.44288e-06	1.8633e-06
2	1	0	1	1	427.888	-0.284114	-0.284319	0.00665113	2	-2.42986e-06	1.89104e-06
2	1	0	1	1	427.89	-0.274118	-0.274328	0.00695904	2	-2.41622e-06	1.90906e-06
2	1	0	1	1	427.892	-0.264122	-0.264354	0.00726624	2	-2.40197e-06	1.92086e-06
2	1	0	1	1	427.894	-0.254126	-0.254342	0.00756695	2	-2.3871e-06	1.9246e-06
2	1	0	1	1	427.896	-0.244129	-0.244365	0.0078704	2	-2.37164e-06	1.92325e-06
2	1	0	1	1	427.898	-0.234133	-0.234367	0.00817598	2	-2.35556e-06	1.91618e-06
2	1	0	1	1	427.9	-0.224137	-0.224385	0.00847953	2	-2.33887e-06	1.90268e-06
2	1	0	1	1	427.902	-0.214141	-0.214392	0.00879173	2	-2.32157e-06	1.88488e-06
2	1	0	1	1	427.904	-0.204145	-0.204371	0.00910156	2	-2.30365e-06	1.86009e-06
2	1	0	1	1	427.906	-0.194148	-0.194369	0.00941388	2	-2.2851e-06	1.82977e-06
2	1	0	1	1	427.908	-0.184152	-0.184401	0.00972071	2	-2.26593e-06	1.79251e-06
2	1	0	1	1	427.91	-0.174156	-0.174394	0.0100245	2	-2.24616e-06	1.74821e-06
2	1	0	1	1	427.912	-0.16416	-0.164393	0.0103213	2	-2.22578e-06	1.69676e-06
2	1	0	1	1	427.914	-0.154164	-0.154376	0.010605	2	-2.20483e-06	1.63716e-06
2	1	0	1	1	427.916	-0.144167	-0.144394	0.0108603	2	-2.18333e-06	1.56816e-06
2	1	0	1	1	427.918	-0.134171	-0.134391	0.0111086	2	-2.16134e-06	1.4929e-06
2	1	0	1	1	427.92	-0.124175	-0.124379	0.0113322	2	-2.13888e-06	1.40948e-06
2	1	0	1	1	427.922	-0.114179	-0.114381	0.0115352	2	-2.11599e-06	1.3194e-06
2	1	0	1	1	427.924	-0.104183	-0.104396	0.0117169	2	-2.09272e-06	1.22319e-06
2	1	0	1	1	427.926	-0.0941865	-0.0943948	0.0118757	2	-2.06911e-06	1.12101e-06
2	1	0	1	1	427.928	-0.0841903	-0.0844046	0.0120253	2	-2.04519e-06	1.01499e-06
2	1	0	1	1	427.93	-0.0741942	-0.0744203	0.0121684	2	-2.02098e-06	9.05576e-07
2	1	0	1	1	427.932	-0.064198	-0.064429	0.0122983	2	-1.9965e-06	7.92367e-07
2	1	0	1	1	427.934	-0.0542018	-0.0544502	0.0124053	2	-1.97178e-06	6.75469e-07
2	1	0	1	1	427.936	-0.0442056	-0.0444347	0.0125058	2	-1.94686e-06	5.5569e-07
2	1	0	1	1	427.938	-0.0342094	-0.0344178	0.0125934	2	-1.92175e-06	4.33436e-07
2	1	0	1	1	427.94	-0.0242132	-0.0244248	0.0126485	2	-1.89651e-06	3.08938e-07
2	1	0	1	1	427.942	-0.014217	-0.0144407	0.0126999	2	-1.87115e-06	1.83396e-07
2	1	0	1	1	427.944	-0.00422084	-0.00443711	0.0127382	2	-1.84571e-06	5.65206e-08
2	1	0	1	1	427.946	0.00594195	0.00574898	0.0127955	2	-1.82017e-06	7.3561e-08
2	1	0	1	1	427.948	0.0161047	0.0159467	0.0128304	2	-1.79454e-06	2.04603e-07
2	1	0	1	1	427.95	0.0261009	0.0259208	0.0128228	2	-1.76889e-06	3.32377e-07
2	1	0	1	1	427.952	0.0360971	0.0359189	0.0128137	2	-1.74325e-06	4.60253e-07
2	1	0	1	1	427.954	0.0460933	0.0459248	0.0128025	2	-1.71764e-06	5.87952e-07
2	1	0	1	1	427.956	0.0560895	0.0559467	0.0127895	2	-1.69205e-06	7.15527e-07
2	1	0	1	1	427.958	0.0660857	0.0659167	0.0127583	2	-1.6665e-06	8.40983e-07
2	1	0	1	1	427.96	0.0760818	0.0759119	0.0127229	2	-1.64102e-06	9.65822e-07
2	1	0	1	1	427.962	0.086078	0.0859029	0.0126914	2	-1.61561e-06	1.09022e-06
2	1	0	1	1	427.964	0.0950746	0.094893	0.0126647	2	-1.59279e-06	1.20179e-06
2	1	0	1	1	427.965	0.0995729	0.099433	0.0126504	2	-1.5814e-06	1.25787e-06
2	1	0	0	1	427.965	0.100573	0.10041	0.0126485	2	-1.57887e-06	1.27003e-06
2	0	0	1	1	427.965	0.0995729	0.0994712	0.0122625	2	-1.57642e-06	1.21977e-06
2	0	0	0	1	427.966	0.094075	0.0939886	0.0102658	2	-1.56496e-06	9.64866e-07
2	0	0	0	1	427.968	0.0840788	0.0839889	0.00727444	2	-1.54774e-06	6.10972e-07
2	0	0	0	1	427.97	0.0740826	0.0739965	0.00491292	2	-1.53581e-06	3.63539e-07
2	0	0	0	1	427.972	0.0640864	0.0639993	0.00300346	2	-1.5281e-06	1.92219e-07
2	0	0	0	1	427.974	0.0540902	0.054011	0.00143229	2	-1.52383e-06	7.73592e-08
2	0	0	0	1	427.976	0.0440941	0.0439832	0.000121077	2	-1.52241e-06	5.32534e-09
2	0	0	0	1	427.978	0.0340979	0.0339957	-0.000984792	2	-1.52339e-06	3.34787e-08
2	0	0	0	1	427.98	0.0241017	0.0239936	-0.00192721	2	-1.5264e-06	4.62408e-08
2	0	0	0	1	427.982	0.0141055	0.0140047	-0.0027372	2	-1.53115e-06	3.83336e-08
2	0	0	0	1	427.984	0.00386867	0.00374674	-0.00349447	2	-1.53746e-06	1.30928e-08
2	0	0	0	1	427.986	-0.00622008	-0.00637449	-0.00412454	2	-1.54515e-06	2.62918e-08
2	0	0	0	1	427.988	-0.0162163	-0.016362	-0.00466901	2	-1.55399e-06	7.63942e-08
2	0	0	0	1	427.99	-0.0262125	-0.0263495	-0.00515364	2	-1.56387e-06	1.35796e-07
2	0	0	0	1	427.992	-0.0362086	-0.0363427	-0.00559905	2	-1.57466e-06	2.03484e-07
2	0	0	0	1	427.994	-0.0462048	-0.0463577	-0.00601141	2	-1.58632e-06	2.78675e-07
2	0	0	0	1	427.996	-0.056201	-0.0563768	-0.00639325	2	-1.59876e-06	3.60431e-07
2	0	0	0	1	427.998	-0.0661972	-0.0663416	-0.00673986	2	-1.61193e-06	4.47133e-07
2	0	0	0	1	428	-0.0761934	-0.0763462	-0.00708191	2	-1.62579e-06	5.40677e-07
2	0	0	0	1	428.002	-0.0861896	-0.086329	-0.00739116	2	-1.64029e-06	6.38072e-07
2	0	0	0	1	428.004	-0.0961858	-0.0963281	-0.00769086	2	-1.6554e-06	7.40846e-07
2	0	0	0	1	428.006	-0.106182	-0.106329	-0.00798189	2	-1.67111e-06	8.48709e-07
2	0	0	0	1	428.008	-0.116178	-0.116307	-0.00826311	2	-1.68738e-06	9.6106e-07
2	0	0	0	1	428.01	-0.126174	-0.126333	-0.0085386	2	-1.70421e-06	1.07871e-06
2	0	0	0	1	428.012	-0.136171	-0.136317	-0.00880361	2	-1.72158e-06	1.20008e-06
2	0	0	0	1	428.014	-0.146167	-0.146331	-0.00906871	2	-1.73948e-06	1.32703e-06
2	0	0	0	1	428.016	-0.156163	-0.156315	-0.00932414	2	-1.7579e-06	1.4575e-06
2	0	0	0	1	428.018	-0.166159	-0.166306	-0.00958232	2	-1.77683e-06	1.59359e-06
2	0	0	0	1	428.02	-0.176155	-0.176322	-0.00983909	2	-1.79628e-06	1.73485e-06
2	0	0	0	1	428.022	-0.186151	-0.186308	-0.0100967	2	-1.81624e-06	1.88109e-06
2	0	0	0	1	428.024	-0.196148	-0.196311	-0.0103479	2	-1.83671e-06	2.0314e-06
2	0	0	0	1	428.026	-0.206144	-0.206284	-0.0106029	2	-1.85768e-06	2.1872e-06
2	0	0	0	1	428.028	-0.21614	-0.216298	-0.0108631	2	-1.87917e-06	2.34967e-06
2	0	0	0	1	428.03	-0.226136	-0.22632	-0.0111258	2	-1.90119e-06	2.51798e-06
2	0	0	0	1	428.032	-0.236132	-0.236297	-0.0113927	2	-1.92373e-06	2.69205e-06
2	0	0	0	1	428.034	-0.246129	-0.246309	-0.0116605	2	-1.94681e-06	2.87208e-06
2	0	0	0	1	428.036	-0.256125	-0.256279	-0.0119302	2	-1.97043e-06	3.05747e-06
2	0	0	0	1	428.038	-0.266121	-0.26627	-0.0122129	2	-1.9946e-06	3.25192e-06
2	0	0	0	1	428.04	-0.276117	-0.27625	-0.0125016	2	-2.01934e-06	3.45357e-06
2	0	0	0	1	428.042	-0.286113	-0.286252	-0.0127997	2	-2.04467e-06	3.66395e-06
2	0	0	0	1	428.044	-0.29611	-0.296263	-0.0131154	2	-2.07062e-06	3.88561e-06
2	0	0	0	1	428.046	-0.306106	-0.306283	-0.0134387	2	-2.09721e-06	4.11606e-06
2	0	0	0	1	428.048	-0.316102	-0.316287	-0.0137729	2	-2.12445e-06	4.3562e-06
2	0	0	0	1	428.05	-0.326098	-0.326255	-0.0141149	2	-2.15237e-06	4.60506e-06
2	0	0	0	1	428.052	-0.336094	-0.336268	-0.0144737	2	-2.181e-06	4.86705e-06
2	0	0	0	1	428.054	-0.346091	-0.346282	-0.0148351	2	-2.21034e-06	5.13714e-06
2	0	0	0	1	428.056	-0.356087	-0.356289	-0.0152016	2	-2.24042e-06	5.41618e-06
2	0	0	0	1	428.058	-0.366083	-0.36624	-0.0155747	2	-2.27123e-06	5.70408e-06
2	0	0	0	1	428.06	-0.376079	-0.376268	-0.0159553	2	-2.3028e-06	6.00345e-06
2	0	0	0	1	428.062	-0.386075	-0.386284	-0.0163368	2	-2.33513e-06	6.31066e-06
2	0	0	0	1	428.064	-0.396071	-0.396263	-0.0167015	2	-2.3682e-06	6.61818e-06
2	0	0	0	1	428.066	-0.406068	-0.406289	-0.0170717	2	-2.40201e-06	6.93605e-06
2	0	0	0	1	428.068	-0.416064	-0.416262	-0.0174342	2	-2.43656e-06	7.25718e-06
2	0	0	0	1	428.07	-0.42606	-0.42626	-0.0177856	2	-2.47181e-06	7.5813e-06
2	0	0	0	1	428.072	-0.436056	-0.436239	-0.0181204	2	-2.50775e-06	7.90482e-06
2	0	0	0	1	428.074	-0.446052	-0.446233	-0.0184523	2	-2.54436e-06	8.234e-06
2	0	0	0	1	428.076	-0.456049	-0.456225	-0.0187667	2	-2.58161e-06	8.56183e-06
2	0	0	0	1	428.078	-0.466045	-0.466234	-0.0190889	2	-2.6195e-06	8.89987e-06
2	0	0	0	1	428.08	-0.476041	-0.476245	-0.0193758	2	-2.65799e-06	9.22762e-06
2	0	0	0	1	428.082	-0.486037	-0.486242	-0.0196586	2	-2.69706e-06	9.55884e-06
2	0	0	0	1	428.084	-0.496033	-0.496225	-0.0199439	2	-2.73669e-06	9.89664e-06
2	0	0	0	1	428.086	-0.506029	-0.506216	-0.0202197	2	-2.77688e-06	1.02355e-05
2	0	0	0	1	428.088	-0.516026	-0.51622	-0.0204989	2	-2.81763e-06	1.05819e-05
2	0	0	0	1	428.09	-0.526022	-0.526219	-0.0207623	2	-2.85892e-06	1.09255e-05
2	0	0	0	1	428.092	-0.536018	-0.536186	-0.0210272	2	-2.90073e-06	1.12745e-05
2	0	0	0	1	428.094	-0.546014	-0.546193	-0.0213098	2	-2.9431e-06	1.16393e-05
2	0	0	0	1	428.096	-0.55601	-0.556197	-0.0216024	2	-2.98604e-06	1.20152e-05
2	0	0	0	1	428.098	-0.566007	-0.566216	-0.0218994	2	-3.02957e-06	1.23998e-05
2	0	0	0	1	428.1	-0.576003	-0.576199	-0.0222132	2	-3.07371e-06	1.27992e-05
2	0	0	0	1	428.102	-0.585999	-0.586185	-0.0225447	2	-3.1185e-06	1.32154e-05
2	0	0	0	1	428.104	-0.594996	-0.595183	-0.0228453	2	-3.15936e-06	1.35971e-05
2	0	0	0	1	428.105	-0.599494	-0.599673	-0.0230043	2	-3.17996e-06	1.37951e-05
2	0	0	1	1	428.105	-0.600493	-0.600645	-0.0230349	2	-3.18457e-06	1.38358e-05