File: TAP_Report/Data/Res_PB/100 uM RS 10mM PB_04_CV_C01_2.mpt
EC-Lab ASCII FILE
Nb header lines : 53

Cyclic Voltammetry

Run on channel : 1 (SN 0696)
User :
Electrode connection : standard
Ewe ctrl range : min = -10.00 V, max = 10.00 V
Ewe,I filtering : 50 kHz
Channel : Grounded
Acquisition started on : 05/17/2017 12:53:20
Saved on :
	File : 100 uM RS 10mM PB_04_CV_C01.mpr
	Directory : \\userfs\st659\w2k\EC-Lab\Data\ITO Characterisation 17-5-17\
	Host : 144.32.136.43
Device : SP-300 (SN 0182)
Address : USB
EC-Lab for windows v10.44 (software)
Internet server v10.44 (firmware)
Command interpretor v10.44 (firmware)
Electrode material :
Initial state :
Electrolyte :
Comments :
Cable : standard
Electrode surface area : 0.001 cm²
Characteristic mass : 0.001 g
Equivalent Weight : 0.000 g/eq.
Density : 0.000 g/cm3
Ei (V)              0.000
vs.                 Eoc
dE/dt               250.000
dE/dt unit          mV/s
E1 (V)              0.100
vs.                 Ref
Step percent        50
N                   10
E range min (V)     -10.000
E range max (V)     10.000
I Range             Auto
I Range min         Unset
I Range max         Unset
I Range init        Unset
Bandwidth           8
E2 (V)              -0.600
vs.                 Ref
nc cycles           2
Reverse Scan        1
Ef (V)              0.000
vs.                 Eoc

mode	ox/red	error	control changes	counter inc.	time/s	control/V	Ewe/V	<I>/mA	cycle number	(Q-Qo)/C	P/W
2	1	0	1	1	395.23	-0.60016	-0.600344	-0.0116608	2	-1.51238e-05	7.00047e-06
2	1	0	0	1	395.238	-0.598328	-0.598525	-0.0112066	2	-1.5207e-05	6.70743e-06
2	1	0	1	1	395.251	-0.594979	-0.595218	-0.0107299	2	-1.53535e-05	6.38662e-06
2	1	0	1	1	395.264	-0.59168	-0.591892	-0.0104042	2	-1.54927e-05	6.15816e-06
2	1	0	0	1	395.278	-0.588332	-0.588567	-0.0101323	2	-1.56299e-05	5.96352e-06
2	1	0	1	1	395.291	-0.584983	-0.58521	-0.00988039	2	-1.57637e-05	5.7821e-06
2	1	0	1	1	395.304	-0.581684	-0.581899	-0.00964861	2	-1.58922e-05	5.61451e-06
2	1	0	0	1	395.318	-0.578335	-0.578569	-0.00942683	2	-1.60197e-05	5.45407e-06
2	1	0	1	1	395.331	-0.574987	-0.57522	-0.00921488	2	-1.61443e-05	5.30058e-06
2	1	0	1	1	395.344	-0.571688	-0.571925	-0.00901072	2	-1.62643e-05	5.15346e-06
2	1	0	0	1	395.358	-0.568339	-0.568559	-0.00881648	2	-1.63834e-05	5.01269e-06
2	1	0	1	1	395.371	-0.56499	-0.565219	-0.00862832	2	-1.65e-05	4.8769e-06
2	1	0	1	1	395.384	-0.561681	-0.561891	-0.00844051	2	-1.66123e-05	4.74265e-06
2	1	0	0	1	395.398	-0.558326	-0.558539	-0.00826455	2	-1.67239e-05	4.61608e-06
2	1	0	0	1	395.411	-0.555028	-0.555261	-0.00809586	2	-1.68316e-05	4.49531e-06
2	1	0	1	1	395.424	-0.551679	-0.55189	-0.00792272	2	-1.69386e-05	4.37247e-06
2	1	0	0	1	395.438	-0.54833	-0.548513	-0.00775676	2	-1.70434e-05	4.25468e-06
2	1	0	0	1	395.451	-0.545031	-0.545231	-0.00760265	2	-1.71444e-05	4.1452e-06
2	1	0	1	1	395.464	-0.541683	-0.541876	-0.00744755	2	-1.7245e-05	4.03565e-06
2	1	0	0	1	395.478	-0.538334	-0.538533	-0.00729807	2	-1.73434e-05	3.93025e-06
2	1	0	0	1	395.491	-0.535035	-0.535233	-0.00715231	2	-1.74385e-05	3.82815e-06
2	1	0	1	1	395.504	-0.531686	-0.531899	-0.0070118	2	-1.75331e-05	3.72957e-06
2	1	0	0	1	395.518	-0.528338	-0.528552	-0.00687075	2	-1.76258e-05	3.63154e-06
2	1	0	0	1	395.531	-0.525039	-0.525262	-0.00673661	2	-1.77154e-05	3.53849e-06
2	1	0	1	1	395.544	-0.52169	-0.521905	-0.00660121	2	-1.78044e-05	3.44521e-06
2	1	0	0	1	395.558	-0.518358	-0.518581	-0.0064704	2	-1.78911e-05	3.35542e-06
2	1	0	0	1	395.571	-0.515026	-0.515246	-0.0063455	2	-1.7976e-05	3.26949e-06
2	1	0	1	1	395.584	-0.511677	-0.511902	-0.00622135	2	-1.80599e-05	3.18472e-06
2	1	0	1	1	395.598	-0.508379	-0.5086	-0.00610069	2	-1.81409e-05	3.10281e-06
2	1	0	0	1	395.611	-0.50503	-0.505261	-0.00598104	2	-1.82215e-05	3.02199e-06
2	1	0	1	1	395.624	-0.501681	-0.501924	-0.00586329	2	-1.83006e-05	2.94292e-06
2	1	0	1	1	395.638	-0.498382	-0.498593	-0.0057511	2	-1.8377e-05	2.86746e-06
2	1	0	0	1	395.651	-0.495034	-0.49525	-0.00563831	2	-1.8453e-05	2.79237e-06
2	1	0	1	1	395.664	-0.491685	-0.491912	-0.00552774	2	-1.85275e-05	2.71916e-06
2	1	0	1	1	395.678	-0.488386	-0.488606	-0.00542441	2	-1.85995e-05	2.6504e-06
2	1	0	0	1	395.691	-0.485038	-0.485258	-0.00531811	2	-1.86712e-05	2.58065e-06
2	1	0	1	1	395.704	-0.481689	-0.481915	-0.00521496	2	-1.87415e-05	2.51317e-06
2	1	0	1	1	395.718	-0.47839	-0.47862	-0.00511554	2	-1.88094e-05	2.4484e-06
2	1	0	0	1	395.731	-0.475036	-0.475255	-0.00501399	2	-1.8877e-05	2.38292e-06
2	1	0	0	1	395.744	-0.471726	-0.471958	-0.00492221	2	-1.89423e-05	2.32308e-06
2	1	0	1	1	395.758	-0.468377	-0.468588	-0.00482632	2	-1.90073e-05	2.26156e-06
2	1	0	0	1	395.771	-0.465028	-0.465216	-0.00473329	2	-1.90711e-05	2.202e-06
2	1	0	0	1	395.784	-0.46173	-0.461935	-0.00464244	2	-1.91326e-05	2.1445e-06
2	1	0	1	1	395.798	-0.458381	-0.458566	-0.00455318	2	-1.9194e-05	2.08793e-06
2	1	0	0	1	395.826	-0.451208	-0.451386	-0.00437541	2	-1.93211e-05	1.975e-06
2	1	0	0	1	395.855	-0.444037	-0.44426	-0.00420669	2	-1.94459e-05	1.86887e-06
2	1	0	0	1	395.868	-0.440738	-0.440963	-0.00412487	2	-1.95006e-05	1.81892e-06
2	1	0	1	1	395.882	-0.437389	-0.43761	-0.0040455	2	-1.95551e-05	1.77035e-06
2	1	0	0	1	395.895	-0.43404	-0.434256	-0.00396565	2	-1.96085e-05	1.72211e-06
2	1	0	0	1	395.908	-0.430731	-0.430941	-0.00389005	2	-1.96601e-05	1.67639e-06
2	1	0	1	1	395.922	-0.427376	-0.427601	-0.00381586	2	-1.97115e-05	1.63166e-06
2	1	0	1	1	395.935	-0.424077	-0.424299	-0.00374452	2	-1.97611e-05	1.58879e-06
2	1	0	0	1	395.948	-0.420729	-0.420953	-0.00367083	2	-1.98105e-05	1.54525e-06
2	1	0	1	1	395.962	-0.41738	-0.417618	-0.00359947	2	-1.9859e-05	1.5032e-06
2	1	0	1	1	395.975	-0.414081	-0.414294	-0.00352988	2	-1.99058e-05	1.46241e-06
2	1	0	0	1	395.988	-0.410733	-0.410949	-0.00346065	2	-1.99524e-05	1.42215e-06
2	1	0	1	1	396.002	-0.407384	-0.407621	-0.00339344	2	-1.9998e-05	1.38324e-06
2	1	0	1	1	396.015	-0.404085	-0.404305	-0.00332797	2	-2.00421e-05	1.34552e-06
2	1	0	0	1	396.028	-0.400736	-0.400983	-0.00326324	2	-2.0086e-05	1.30851e-06
2	1	0	1	1	396.042	-0.397388	-0.397649	-0.00319823	2	-2.01291e-05	1.27178e-06
2	1	0	1	1	396.055	-0.394089	-0.39433	-0.00313452	2	-2.01706e-05	1.23603e-06
2	1	0	0	1	396.068	-0.39074	-0.390971	-0.00307065	2	-2.02119e-05	1.20054e-06
2	1	0	1	1	396.081	-0.387408	-0.387643	-0.00301045	2	-2.02521e-05	1.16698e-06
2	1	0	1	1	396.095	-0.384076	-0.384312	-0.00294927	2	-2.02915e-05	1.13344e-06
2	1	0	0	1	396.108	-0.380727	-0.380948	-0.00288663	2	-2.03303e-05	1.09966e-06
2	1	0	0	1	396.121	-0.377429	-0.377632	-0.00283085	2	-2.03678e-05	1.06902e-06
2	1	0	1	1	396.135	-0.37408	-0.374294	-0.00277258	2	-2.04051e-05	1.03776e-06
2	1	0	0	1	396.148	-0.370731	-0.370912	-0.00271405	2	-2.04416e-05	1.00667e-06
2	1	0	0	1	396.161	-0.367432	-0.367624	-0.00265829	2	-2.04768e-05	9.77249e-07
2	1	0	1	1	396.175	-0.364084	-0.364292	-0.00260297	2	-2.05118e-05	9.48243e-07
2	1	0	0	1	396.188	-0.360735	-0.360951	-0.00254904	2	-2.05461e-05	9.2008e-07
2	1	0	0	1	396.201	-0.357436	-0.357661	-0.00249311	2	-2.05791e-05	8.91691e-07
2	1	0	1	1	396.215	-0.354087	-0.354324	-0.00243943	2	-2.06119e-05	8.64348e-07
2	1	0	0	1	396.228	-0.350739	-0.350973	-0.00238473	2	-2.0644e-05	8.36976e-07
2	1	0	0	1	396.241	-0.34744	-0.347646	-0.00232973	2	-2.06748e-05	8.09923e-07
2	1	0	1	1	396.255	-0.344091	-0.344314	-0.00227912	2	-2.07054e-05	7.84732e-07
2	1	0	1	1	396.268	-0.340776	-0.340998	-0.0022247	2	-2.07349e-05	7.5862e-07
2	1	0	0	1	396.281	-0.337427	-0.337609	-0.00217018	2	-2.07641e-05	7.32673e-07
2	1	0	1	1	396.295	-0.334078	-0.334276	-0.00212046	2	-2.07926e-05	7.08819e-07
2	1	0	1	1	396.308	-0.33078	-0.330966	-0.00206878	2	-2.082e-05	6.84697e-07
2	1	0	0	1	396.321	-0.327431	-0.327607	-0.00201681	2	-2.08471e-05	6.60722e-07
2	1	0	1	1	396.335	-0.324082	-0.324273	-0.00196778	2	-2.08735e-05	6.38098e-07
2	1	0	1	1	396.348	-0.320783	-0.320959	-0.00191696	2	-2.08989e-05	6.15266e-07
2	1	0	0	1	396.361	-0.317435	-0.31763	-0.00186868	2	-2.0924e-05	5.93551e-07
2	1	0	1	1	396.375	-0.314086	-0.314261	-0.00181704	2	-2.09485e-05	5.71024e-07
2	1	0	1	1	396.388	-0.310787	-0.310973	-0.00176757	2	-2.09719e-05	5.49666e-07
2	1	0	0	1	396.401	-0.307439	-0.307633	-0.00171785	2	-2.0995e-05	5.28468e-07
2	1	0	1	1	396.415	-0.30409	-0.304287	-0.00166778	2	-2.10174e-05	5.07484e-07
2	1	0	1	1	396.428	-0.300791	-0.300965	-0.00161938	2	-2.10389e-05	4.87376e-07
2	1	0	0	1	396.441	-0.297426	-0.297612	-0.00156843	2	-2.106e-05	4.66784e-07
2	1	0	0	1	396.455	-0.294127	-0.294275	-0.00151809	2	-2.10801e-05	4.46736e-07
2	1	0	1	1	396.468	-0.290778	-0.290931	-0.00147301	2	-2.10999e-05	4.28543e-07
2	1	0	0	1	396.481	-0.28743	-0.287587	-0.00142339	2	-2.1119e-05	4.09347e-07
2	1	0	0	1	396.495	-0.284131	-0.284285	-0.0013738	2	-2.11372e-05	3.90551e-07
2	1	0	1	1	396.508	-0.280782	-0.280953	-0.00132724	2	-2.1155e-05	3.72892e-07
2	1	0	0	1	396.521	-0.277433	-0.277588	-0.00127912	2	-2.11723e-05	3.55069e-07
2	1	0	0	1	396.535	-0.274135	-0.274316	-0.00123335	2	-2.11886e-05	3.38327e-07
2	1	0	1	1	396.548	-0.270786	-0.270951	-0.0011844	2	-2.12045e-05	3.20914e-07
2	1	0	0	1	396.561	-0.267437	-0.267623	-0.00113734	2	-2.12198e-05	3.04379e-07
2	1	0	0	1	396.575	-0.264138	-0.264313	-0.00108975	2	-2.12343e-05	2.88036e-07
2	1	0	1	1	396.588	-0.26079	-0.260942	-0.00104451	2	-2.12483e-05	2.72555e-07
2	1	0	0	1	396.601	-0.257441	-0.257627	-0.000998614	2	-2.12618e-05	2.5727e-07
2	1	0	0	1	396.615	-0.254126	-0.254318	-0.000952793	2	-2.12744e-05	2.42313e-07
2	1	0	1	1	396.628	-0.250777	-0.25096	-0.000907581	2	-2.12866e-05	2.27767e-07
2	1	0	1	1	396.641	-0.247478	-0.247659	-0.000866152	2	-2.12981e-05	2.1451e-07
2	1	0	0	1	396.655	-0.244129	-0.244316	-0.000821728	2	-2.13091e-05	2.00761e-07
2	1	0	1	1	396.668	-0.240781	-0.240954	-0.00077923	2	-2.13196e-05	1.87759e-07
2	1	0	1	1	396.681	-0.237482	-0.237656	-0.00074091	2	-2.13294e-05	1.76081e-07
2	1	0	0	1	396.695	-0.234133	-0.234309	-0.000700585	2	-2.13388e-05	1.64153e-07
2	1	0	1	1	396.708	-0.230784	-0.230964	-0.000663259	2	-2.13477e-05	1.53189e-07
2	1	0	1	1	396.721	-0.227486	-0.227692	-0.000627309	2	-2.1356e-05	1.42833e-07
2	1	0	0	1	396.735	-0.224137	-0.224319	-0.00059019	2	-2.13639e-05	1.32391e-07
2	1	0	1	1	396.748	-0.220788	-0.220965	-0.000553905	2	-2.13713e-05	1.22393e-07
2	1	0	1	1	396.761	-0.21749	-0.217676	-0.000520985	2	-2.13781e-05	1.13406e-07
2	1	0	0	1	396.775	-0.214141	-0.214332	-0.000489358	2	-2.13847e-05	1.04885e-07
2	1	0	1	1	396.788	-0.210803	-0.21098	-0.000454919	2	-2.13907e-05	9.5979e-08
2	1	0	1	1	396.801	-0.207477	-0.207654	-0.000425102	2	-2.13963e-05	8.82743e-08
2	1	0	0	1	396.815	-0.204128	-0.204297	-0.000396886	2	-2.14016e-05	8.10828e-08
2	1	0	0	1	396.828	-0.200829	-0.200991	-0.000368829	2	-2.14064e-05	7.41315e-08
2	1	0	1	1	396.841	-0.19748	-0.197649	-0.000340886	2	-2.14109e-05	6.73759e-08
2	1	0	1	1	396.885	-0.186485	-0.186632	-0.00025014	2	-2.14236e-05	4.66842e-08
2	1	0	0	1	396.899	-0.183136	-0.183277	-0.000227186	2	-2.14267e-05	4.16381e-08
2	1	0	0	1	396.912	-0.179837	-0.179978	-0.00020478	2	-2.14295e-05	3.68557e-08
2	1	0	1	1	396.925	-0.176488	-0.176619	-0.000182	2	-2.1432e-05	3.21447e-08
2	1	0	0	1	396.939	-0.17314	-0.173291	-0.000162716	2	-2.14343e-05	2.81972e-08
2	1	0	0	1	396.952	-0.169841	-0.169983	-0.000141748	2	-2.14362e-05	2.40948e-08
2	1	0	1	1	396.965	-0.166476	-0.166622	-0.000119382	2	-2.14379e-05	1.98918e-08
2	1	0	1	1	396.978	-0.163177	-0.163307	-0.000102828	2	-2.14393e-05	1.67926e-08
2	1	0	0	1	396.992	-0.159828	-0.15997	-8.40087e-05	2	-2.14404e-05	1.34389e-08
2	1	0	1	1	397.005	-0.156479	-0.156585	-6.5351e-05	2	-2.14414e-05	1.0233e-08
2	1	0	1	1	397.018	-0.153181	-0.153303	-4.87542e-05	2	-2.14421e-05	7.47418e-09
2	1	0	0	1	397.032	-0.149832	-0.149957	-3.18261e-05	2	-2.14425e-05	4.77254e-09
2	1	0	1	1	397.045	-0.146483	-0.146617	-1.68523e-05	2	-2.14428e-05	2.47083e-09
2	1	0	1	1	397.058	-0.143185	-0.143309	-1.15489e-06	2	-2.14428e-05	1.65505e-10
2	1	0	0	1	397.072	-0.139836	-0.139985	1.463e-05	2	-2.14427e-05	2.04798e-09
2	1	0	1	1	397.085	-0.136487	-0.136615	3.07911e-05	2	-2.14423e-05	4.20653e-09
2	1	0	1	1	397.098	-0.133188	-0.133289	4.44314e-05	2	-2.14417e-05	5.92224e-09
2	1	0	0	1	397.112	-0.12984	-0.129966	5.7651e-05	2	-2.1441e-05	7.49268e-09
2	1	0	1	1	397.125	-0.126491	-0.126621	7.3153e-05	2	-2.144e-05	9.26269e-09
2	1	0	1	1	397.138	-0.123175	-0.123269	8.74719e-05	2	-2.14389e-05	1.07826e-08
2	1	0	0	1	397.152	-0.119827	-0.119934	9.76445e-05	2	-2.14376e-05	1.17109e-08
2	1	0	0	1	397.165	-0.116528	-0.116629	0.000108672	2	-2.14362e-05	1.26743e-08
2	1	0	1	1	397.178	-0.113179	-0.113285	0.000120641	2	-2.14345e-05	1.36668e-08
2	1	0	0	1	397.192	-0.109831	-0.109936	0.000129446	2	-2.14328e-05	1.42307e-08
2	1	0	0	1	397.205	-0.106532	-0.106645	0.000139727	2	-2.1431e-05	1.49012e-08
2	1	0	1	1	397.218	-0.103183	-0.103296	0.000148757	2	-2.1429e-05	1.5366e-08
2	1	0	0	1	397.232	-0.0998344	-0.0999371	0.000157472	2	-2.14268e-05	1.57373e-08
2	1	0	0	1	397.245	-0.0965356	-0.0966488	0.000165911	2	-2.14246e-05	1.60351e-08
2	1	0	1	1	397.258	-0.0931869	-0.0933009	0.0001751	2	-2.14223e-05	1.6337e-08
2	1	0	0	1	397.272	-0.0898382	-0.0899453	0.000181696	2	-2.14198e-05	1.63427e-08
2	1	0	0	1	397.285	-0.0865395	-0.0866616	0.000188258	2	-2.14173e-05	1.63147e-08
2	1	0	1	1	397.298	-0.0831907	-0.0833088	0.000193662	2	-2.14147e-05	1.61337e-08
2	1	0	0	1	397.312	-0.079853	-0.0799725	0.0002034	2	-2.1412e-05	1.62664e-08
2	1	0	0	1	397.325	-0.0765266	-0.076653	0.000208545	2	-2.14092e-05	1.59856e-08
2	1	0	1	1	397.338	-0.0731779	-0.073297	0.00021453	2	-2.14063e-05	1.57244e-08
2	1	0	1	1	397.352	-0.0698791	-0.0699809	0.000220382	2	-2.14033e-05	1.54225e-08
2	1	0	0	1	397.365	-0.0665304	-0.0666482	0.000224287	2	-2.14003e-05	1.49483e-08
2	1	0	1	1	397.378	-0.0631817	-0.0633009	0.000228039	2	-2.13972e-05	1.44351e-08
2	1	0	1	1	397.392	-0.059883	-0.0600222	0.000234191	2	-2.13941e-05	1.40567e-08
2	1	0	0	1	397.405	-0.0565342	-0.0566632	0.000237612	2	-2.13908e-05	1.34639e-08
2	1	0	1	1	397.418	-0.0531855	-0.053316	0.000243054	2	-2.13875e-05	1.29587e-08
2	1	0	1	1	397.432	-0.0498868	-0.0500065	0.000248825	2	-2.13842e-05	1.24429e-08
2	1	0	0	1	397.445	-0.046538	-0.04665	0.000251747	2	-2.13808e-05	1.1744e-08
2	1	0	1	1	397.458	-0.0431893	-0.0433193	0.000256686	2	-2.13773e-05	1.11194e-08
2	1	0	1	1	397.472	-0.0398906	-0.0399928	0.00026273	2	-2.13738e-05	1.05073e-08
2	1	0	0	1	397.485	-0.0365307	-0.0366438	0.000266907	2	-2.13702e-05	9.78049e-09
2	1	0	0	1	397.498	-0.0332264	-0.0333412	0.000269704	2	-2.13666e-05	8.99226e-09
2	1	0	1	1	397.512	-0.0298777	-0.029988	0.000275429	2	-2.13629e-05	8.25958e-09
2	1	0	0	1	397.525	-0.026529	-0.0266314	0.00027824	2	-2.13591e-05	7.4099e-09
2	1	0	0	1	397.538	-0.0232303	-0.0233459	0.000281726	2	-2.13553e-05	6.57716e-09
2	1	0	1	1	397.552	-0.0198815	-0.0200055	0.000284699	2	-2.13515e-05	5.69555e-09
2	1	0	0	1	397.565	-0.0165328	-0.0166574	0.000290642	2	-2.13475e-05	4.84133e-09
2	1	0	0	1	397.578	-0.0132341	-0.0133494	0.000294033	2	-2.13436e-05	3.92515e-09
2	1	0	1	1	397.592	-0.00988535	-0.0100297	0.000299652	2	-2.13396e-05	3.00541e-09
2	1	0	0	1	397.605	-0.00653662	-0.00664814	0.000304549	2	-2.13355e-05	2.02469e-09
2	1	0	0	1	397.618	-0.00323788	-0.00336851	0.000307167	2	-2.13313e-05	1.0347e-09
2	1	0	1	1	397.632	0.000122924	-1.27587e-05	0.000312594	2	-2.13271e-05	3.9883e-12
2	1	0	0	1	397.645	0.00345956	0.00337654	0.000320805	2	-2.13228e-05	1.08321e-09
2	1	0	0	1	397.658	0.00676941	0.00668828	0.000324415	2	-2.13185e-05	2.16978e-09
2	1	0	1	1	397.672	0.0101237	0.0100419	0.000329821	2	-2.1314e-05	3.31202e-09
2	1	0	1	1	397.685	0.0134224	0.0133466	0.000334098	2	-2.13096e-05	4.45907e-09
2	1	0	0	1	397.698	0.0167711	0.0167065	0.000337903	2	-2.1305e-05	5.64518e-09
2	1	0	1	1	397.712	0.0201199	0.0200558	0.00034348	2	-2.13004e-05	6.88878e-09
2	1	0	1	1	397.725	0.0234186	0.0233534	0.000347193	2	-2.12957e-05	8.10814e-09
2	1	0	0	1	397.738	0.0267673	0.0266857	0.000353568	2	-2.1291e-05	9.43521e-09
2	1	0	1	1	397.752	0.0301161	0.030035	0.000358889	2	-2.12861e-05	1.07792e-08
2	1	0	1	1	397.765	0.0334148	0.033343	0.000365198	2	-2.12813e-05	1.21768e-08
2	1	0	0	1	397.778	0.0367635	0.03669	0.000371837	2	-2.12763e-05	1.36427e-08
2	1	0	1	1	397.792	0.0401122	0.0400273	0.00037594	2	-2.12712e-05	1.50479e-08
2	1	0	1	1	397.805	0.043411	0.0433481	0.000382526	2	-2.12661e-05	1.65818e-08
2	1	0	0	1	397.818	0.0467597	0.0467055	0.00039079	2	-2.12609e-05	1.8252e-08
2	1	0	1	1	397.831	0.0500918	0.0500331	0.000395179	2	-2.12556e-05	1.9772e-08
2	1	0	1	1	397.845	0.0534238	0.0533707	0.000401877	2	-2.12502e-05	2.14485e-08
2	1	0	0	1	397.858	0.0567726	0.0567432	0.000409277	2	-2.12447e-05	2.32237e-08
2	1	0	0	1	397.871	0.0600713	0.0600205	0.000413897	2	-2.12392e-05	2.48423e-08
2	1	0	1	1	397.885	0.06342	0.0633683	0.000421304	2	-2.12335e-05	2.66973e-08
2	1	0	0	1	397.898	0.0667687	0.0666992	0.000425998	2	-2.12278e-05	2.84137e-08
2	1	0	0	1	397.911	0.0700675	0.0700163	0.000434547	2	-2.1222e-05	3.04254e-08
2	1	0	1	1	397.925	0.0734162	0.0733638	0.00044179	2	-2.12161e-05	3.24114e-08
2	1	0	0	1	397.938	0.0767649	0.0766961	0.000449482	2	-2.12101e-05	3.44735e-08
2	1	0	0	1	397.951	0.0800637	0.0800065	0.000455905	2	-2.1204e-05	3.64754e-08
2	1	0	1	1	397.965	0.0834124	0.0833468	0.000461864	2	-2.11978e-05	3.84948e-08
2	1	0	0	1	397.978	0.0867611	0.0866888	0.000469491	2	-2.11915e-05	4.06996e-08
2	1	0	0	1	397.991	0.0900598	0.0900015	0.000478492	2	-2.11852e-05	4.3065e-08
2	1	0	1	1	398.005	0.0934141	0.0933524	0.00048594	2	-2.11786e-05	4.53636e-08
2	1	0	1	1	398.018	0.096724	0.096667	0.000494643	2	-2.11721e-05	4.78157e-08
2	1	0	0	1	398.027	0.0990731	0.0990195	0.00050099	2	-2.11674e-05	4.96078e-08
2	0	0	1	1	398.031	0.0999061	0.099807	0.000490443	2	-2.11654e-05	4.89496e-08
2	0	0	0	1	398.039	0.0980568	0.0979218	6.5425e-05	2	-2.11646e-05	6.40653e-09
2	0	0	0	1	398.052	0.0947525	0.09457	-0.0002209	2	-2.11658e-05	2.08905e-08
2	0	0	1	1	398.065	0.0913927	0.0912137	-0.000332468	2	-2.11697e-05	3.03256e-08
2	0	0	1	1	398.094	0.0842579	0.0841071	-0.000461225	2	-2.11815e-05	3.87923e-08
2	0	0	1	1	398.122	0.0770981	0.0769731	-0.000565226	2	-2.11951e-05	4.35072e-08
2	0	0	0	1	398.136	0.0737494	0.0736126	-0.000608299	2	-2.12032e-05	4.47784e-08
2	0	0	1	1	398.149	0.0704007	0.0702747	-0.0006497	2	-2.12119e-05	4.56575e-08
2	0	0	1	1	398.162	0.0671019	0.0669749	-0.000688598	2	-2.12209e-05	4.61187e-08
2	0	0	0	1	398.176	0.0637532	0.0636479	-0.000724839	2	-2.12307e-05	4.61344e-08
2	0	0	1	1	398.189	0.0604045	0.0602871	-0.000761014	2	-2.12409e-05	4.58793e-08
2	0	0	1	1	398.202	0.0571058	0.0569938	-0.000796199	2	-2.12514e-05	4.53784e-08
2	0	0	0	1	398.216	0.053757	0.0536357	-0.000830845	2	-2.12626e-05	4.4563e-08
2	0	0	1	1	398.229	0.050425	0.0503035	-0.000864671	2	-2.12741e-05	4.3496e-08
2	0	0	1	1	398.242	0.0470929	0.0469745	-0.000894933	2	-2.1286e-05	4.2039e-08
2	0	0	0	1	398.256	0.0437442	0.0436004	-0.00092883	2	-2.12985e-05	4.04973e-08
2	0	0	0	1	398.269	0.0404454	0.0402929	-0.000956593	2	-2.13112e-05	3.85439e-08
2	0	0	1	1	398.282	0.0370967	0.036963	-0.000985455	2	-2.13244e-05	3.64254e-08
2	0	0	0	1	398.296	0.033748	0.0335972	-0.00101725	2	-2.13381e-05	3.41767e-08
2	0	0	0	1	398.309	0.0304493	0.030301	-0.00104462	2	-2.1352e-05	3.1653e-08
2	0	0	1	1	398.322	0.0271005	0.026952	-0.00107167	2	-2.13664e-05	2.88836e-08
2	0	0	0	1	398.336	0.0237518	0.0236014	-0.0011012	2	-2.13812e-05	2.59898e-08
2	0	0	0	1	398.349	0.0204531	0.0203283	-0.001126	2	-2.13961e-05	2.28896e-08
2	0	0	1	1	398.362	0.0171044	0.016977	-0.00115353	2	-2.14117e-05	1.95835e-08
2	0	0	0	1	398.376	0.0137556	0.0136236	-0.00118116	2	-2.14275e-05	1.60916e-08
2	0	0	0	1	398.389	0.0104569	0.0103223	-0.00120774	2	-2.14436e-05	1.24666e-08
2	0	0	1	1	398.402	0.00710262	0.00693927	-0.00123504	2	-2.14602e-05	8.5703e-09
2	0	0	1	1	398.416	0.00379277	0.00364915	-0.00125955	2	-2.14769e-05	4.59628e-09
2	0	0	0	1	398.429	0.000444049	0.000265766	-0.00128764	2	-2.14942e-05	3.42213e-10
2	0	0	1	1	398.442	-0.00290467	-0.00308817	-0.00131054	2	-2.15118e-05	4.04719e-09
2	0	0	1	1	398.456	-0.00620342	-0.00638202	-0.00133379	2	-2.15295e-05	8.51228e-09
2	0	0	0	1	398.469	-0.00955214	-0.00972893	-0.00135916	2	-2.15478e-05	1.32232e-08
2	0	0	1	1	398.482	-0.0129009	-0.013095	-0.0013841	2	-2.15664e-05	1.81248e-08
2	0	0	1	1	398.496	-0.0161996	-0.0163727	-0.00140663	2	-2.15851e-05	2.30303e-08
2	0	0	0	1	398.509	-0.0195483	-0.0197303	-0.00143014	2	-2.16044e-05	2.82171e-08
2	0	0	1	1	398.522	-0.0228971	-0.0230629	-0.0014538	2	-2.16239e-05	3.35289e-08
2	0	0	1	1	398.536	-0.0261958	-0.0263481	-0.00147748	2	-2.16435e-05	3.89288e-08
2	0	0	0	1	398.549	-0.0295445	-0.029722	-0.0015026	2	-2.16637e-05	4.46603e-08
2	0	0	1	1	398.562	-0.0328932	-0.0330645	-0.00152549	2	-2.16843e-05	5.04397e-08
2	0	0	1	1	398.576	-0.0361975	-0.036368	-0.00154806	2	-2.17048e-05	5.62999e-08
2	0	0	0	1	398.589	-0.0395574	-0.0397292	-0.00157247	2	-2.17259e-05	6.24732e-08
2	0	0	0	1	398.602	-0.0428561	-0.0430458	-0.00159562	2	-2.17471e-05	6.86848e-08
2	0	0	1	1	398.616	-0.0462048	-0.0463984	-0.00161581	2	-2.17689e-05	7.4971e-08
2	0	0	0	1	398.629	-0.0495536	-0.0497541	-0.00163857	2	-2.17909e-05	8.15258e-08
2	0	0	0	1	398.642	-0.0528523	-0.0530499	-0.00166146	2	-2.18129e-05	8.81402e-08
2	0	0	1	1	398.656	-0.056201	-0.0564049	-0.00168276	2	-2.18356e-05	9.49158e-08
2	0	0	0	1	398.669	-0.0595497	-0.0597383	-0.00170402	2	-2.18585e-05	1.01795e-07
2	0	0	0	1	398.682	-0.0628485	-0.0630249	-0.0017257	2	-2.18814e-05	1.08762e-07
2	0	0	1	1	398.696	-0.0661972	-0.0663834	-0.0017477	2	-2.19049e-05	1.16018e-07
2	0	0	0	1	398.709	-0.0695459	-0.0697214	-0.00176884	2	-2.19287e-05	1.23326e-07
2	0	0	0	1	398.722	-0.0728447	-0.0730529	-0.00179216	2	-2.19525e-05	1.30922e-07
2	0	0	1	1	398.736	-0.0761934	-0.0763913	-0.00181389	2	-2.19769e-05	1.38565e-07
2	0	0	0	1	398.749	-0.0795198	-0.0796903	-0.00183355	2	-2.20014e-05	1.46116e-07
2	0	0	0	1	398.762	-0.0828575	-0.0830303	-0.00185704	2	-2.20262e-05	1.5419e-07
2	0	0	1	1	398.776	-0.0862062	-0.0863826	-0.00187596	2	-2.20514e-05	1.6205e-07
2	0	0	1	1	398.789	-0.089505	-0.0896554	-0.00189788	2	-2.20766e-05	1.70155e-07
2	0	0	0	1	398.802	-0.0928537	-0.0930137	-0.00191939	2	-2.21024e-05	1.7853e-07
2	0	0	1	1	398.816	-0.0962024	-0.0963475	-0.00194211	2	-2.21285e-05	1.87117e-07
2	0	0	1	1	398.829	-0.0995012	-0.0996674	-0.00196158	2	-2.21545e-05	1.95505e-07
2	0	0	0	1	398.842	-0.10285	-0.102998	-0.0019836	2	-2.21812e-05	2.04306e-07
2	0	0	1	1	398.856	-0.106199	-0.106366	-0.00200327	2	-2.22082e-05	2.1308e-07
2	0	0	1	1	398.869	-0.109497	-0.109663	-0.00202502	2	-2.2235e-05	2.22069e-07
2	0	0	0	1	398.882	-0.112846	-0.112993	-0.00204685	2	-2.22625e-05	2.31279e-07
2	0	0	1	1	398.896	-0.116195	-0.116347	-0.00206889	2	-2.22904e-05	2.40709e-07
2	0	0	1	1	398.909	-0.119494	-0.119657	-0.00208945	2	-2.2318e-05	2.50018e-07
2	0	0	0	1	398.922	-0.122842	-0.122987	-0.00210953	2	-2.23464e-05	2.59444e-07
2	0	0	0	1	398.935	-0.126158	-0.126323	-0.00213475	2	-2.23747e-05	2.69667e-07
2	0	0	1	1	398.949	-0.129506	-0.129684	-0.0021548	2	-2.24037e-05	2.79444e-07
2	0	0	0	1	398.962	-0.132855	-0.133033	-0.00217437	2	-2.24329e-05	2.89262e-07
2	0	0	0	1	398.975	-0.136154	-0.136336	-0.0021963	2	-2.2462e-05	2.99436e-07
2	0	0	1	1	398.989	-0.139503	-0.13968	-0.00221781	2	-2.24918e-05	3.09783e-07
2	0	0	0	1	399.002	-0.142851	-0.143035	-0.002239	2	-2.2522e-05	3.20254e-07
2	0	0	0	1	399.015	-0.14615	-0.146347	-0.00226092	2	-2.25519e-05	3.3088e-07
2	0	0	1	1	399.029	-0.149499	-0.149669	-0.00228001	2	-2.25826e-05	3.41247e-07
2	0	0	0	1	399.042	-0.152848	-0.153021	-0.00230223	2	-2.26135e-05	3.5229e-07
2	0	0	0	1	399.055	-0.156146	-0.156309	-0.0023233	2	-2.26443e-05	3.63154e-07
2	0	0	1	1	399.069	-0.159495	-0.15965	-0.00234645	2	-2.26758e-05	3.74611e-07
2	0	0	0	1	399.082	-0.162844	-0.163028	-0.00236933	2	-2.27077e-05	3.86268e-07
2	0	0	0	1	399.095	-0.166142	-0.166328	-0.00239017	2	-2.27393e-05	3.97553e-07
2	0	0	1	1	399.109	-0.169508	-0.169707	-0.00241425	2	-2.27718e-05	4.09715e-07
2	0	0	1	1	399.122	-0.172807	-0.173	-0.00243416	2	-2.2804e-05	4.2111e-07
2	0	0	0	1	399.135	-0.176155	-0.176331	-0.00245526	2	-2.2837e-05	4.3294e-07
2	0	0	1	1	399.149	-0.179504	-0.17969	-0.00248049	2	-2.28703e-05	4.4572e-07
2	0	0	1	1	399.162	-0.182803	-0.182992	-0.00250235	2	-2.29034e-05	4.5791e-07
2	0	0	0	1	399.175	-0.186151	-0.186345	-0.0025241	2	-2.29374e-05	4.70354e-07
2	0	0	1	1	399.189	-0.1895	-0.189694	-0.00254888	2	-2.29716e-05	4.83507e-07
2	0	0	1	1	399.202	-0.192799	-0.192977	-0.00257092	2	-2.30056e-05	4.96128e-07
2	0	0	0	1	399.215	-0.196148	-0.196327	-0.00259602	2	-2.30405e-05	5.09668e-07
2	0	0	1	1	399.229	-0.199496	-0.199664	-0.00262134	2	-2.30757e-05	5.23386e-07
2	0	0	1	1	399.242	-0.202795	-0.202975	-0.00264809	2	-2.31108e-05	5.37497e-07
2	0	0	0	1	399.255	-0.206144	-0.206339	-0.00267398	2	-2.31467e-05	5.51748e-07
2	0	0	1	1	399.269	-0.209493	-0.209667	-0.00270171	2	-2.31829e-05	5.6646e-07
2	0	0	1	1	399.282	-0.212808	-0.213019	-0.00273329	2	-2.3219e-05	5.82242e-07
2	0	0	0	1	399.295	-0.216157	-0.216354	-0.00275978	2	-2.32561e-05	5.9709e-07
2	0	0	0	1	399.309	-0.219455	-0.219647	-0.0027879	2	-2.3293e-05	6.12355e-07
2	0	0	1	1	399.322	-0.222804	-0.223013	-0.00282048	2	-2.33308e-05	6.29005e-07
2	0	0	0	1	399.335	-0.226153	-0.22637	-0.0028513	2	-2.3369e-05	6.4545e-07
2	0	0	0	1	399.349	-0.229452	-0.229655	-0.0028844	2	-2.34071e-05	6.62417e-07
2	0	0	1	1	399.362	-0.2328	-0.233001	-0.00291834	2	-2.34463e-05	6.79977e-07
2	0	0	0	1	399.375	-0.236149	-0.236337	-0.00295415	2	-2.34858e-05	6.98177e-07
2	0	0	0	1	399.389	-0.239448	-0.239624	-0.00299093	2	-2.35253e-05	7.16699e-07
2	0	0	1	1	399.402	-0.242797	-0.242969	-0.00303168	2	-2.3566e-05	7.36604e-07
2	0	0	0	1	399.415	-0.246145	-0.246358	-0.00307199	2	-2.36071e-05	7.56809e-07
2	0	0	0	1	399.429	-0.249444	-0.249653	-0.00311309	2	-2.36482e-05	7.77194e-07
2	0	0	1	1	399.442	-0.252793	-0.252991	-0.00315649	2	-2.36904e-05	7.98563e-07
2	0	0	0	1	399.455	-0.25613	-0.256312	-0.00319907	2	-2.37329e-05	8.19961e-07
2	0	0	0	1	399.469	-0.259457	-0.259635	-0.00324389	2	-2.3776e-05	8.4223e-07
2	0	0	1	1	399.482	-0.262806	-0.262994	-0.00328945	2	-2.38201e-05	8.65107e-07
2	0	0	1	1	399.495	-0.266104	-0.266294	-0.00333863	2	-2.38641e-05	8.89056e-07
2	0	0	0	1	399.509	-0.269453	-0.269633	-0.00338536	2	-2.39094e-05	9.12805e-07
2	0	0	1	1	399.522	-0.272802	-0.272976	-0.00343386	2	-2.39553e-05	9.3736e-07
2	0	0	1	1	399.535	-0.276101	-0.276281	-0.00348261	2	-2.40012e-05	9.6218e-07
2	0	0	0	1	399.549	-0.279449	-0.279611	-0.00353064	2	-2.40485e-05	9.87206e-07
2	0	0	1	1	399.562	-0.282798	-0.282941	-0.0035803	2	-2.40964e-05	1.01301e-06
2	0	0	1	1	399.575	-0.286097	-0.286268	-0.00363248	2	-2.41442e-05	1.03986e-06
2	0	0	0	1	399.589	-0.289445	-0.289622	-0.00368357	2	-2.41935e-05	1.06684e-06
2	0	0	1	1	399.602	-0.292794	-0.292974	-0.00373291	2	-2.42434e-05	1.09365e-06
2	0	0	1	1	399.615	-0.296093	-0.296271	-0.00378628	2	-2.42933e-05	1.12176e-06
2	0	0	0	1	399.629	-0.299453	-0.299645	-0.00384011	2	-2.43447e-05	1.15067e-06
2	0	0	0	1	399.642	-0.302757	-0.302961	-0.00388701	2	-2.43959e-05	1.17761e-06
2	0	0	1	1	399.655	-0.306106	-0.306301	-0.00393723	2	-2.44486e-05	1.20598e-06
2	0	0	0	1	399.669	-0.309454	-0.309645	-0.00398997	2	-2.4502e-05	1.23548e-06
2	0	0	0	1	399.682	-0.312753	-0.312964	-0.00403799	2	-2.45552e-05	1.26374e-06
2	0	0	1	1	399.695	-0.316102	-0.316298	-0.00408812	2	-2.46099e-05	1.29307e-06
2	0	0	0	1	399.709	-0.319451	-0.31964	-0.00413708	2	-2.46653e-05	1.32238e-06
2	0	0	0	1	399.722	-0.322749	-0.322939	-0.00418783	2	-2.47205e-05	1.35241e-06
2	0	0	1	1	399.735	-0.326098	-0.326283	-0.00423855	2	-2.47772e-05	1.38297e-06
2	0	0	0	1	399.749	-0.329447	-0.329631	-0.00428952	2	-2.48346e-05	1.41396e-06
2	0	0	0	1	399.762	-0.332746	-0.332938	-0.00433843	2	-2.48918e-05	1.44443e-06
2	0	0	1	1	399.775	-0.336094	-0.336288	-0.00438765	2	-2.49505e-05	1.47551e-06
2	0	0	0	1	399.789	-0.339443	-0.339647	-0.00443884	2	-2.50099e-05	1.50764e-06
2	0	0	0	1	399.802	-0.342753	-0.342988	-0.00448889	2	-2.5069e-05	1.53963e-06
2	0	0	1	1	399.815	-0.346107	-0.346336	-0.00453738	2	-2.51298e-05	1.57146e-06
2	0	0	1	1	399.828	-0.349406	-0.349613	-0.00458632	2	-2.51902e-05	1.60344e-06
2	0	0	0	1	399.842	-0.352755	-0.352987	-0.00463564	2	-2.52523e-05	1.63632e-06
2	0	0	1	1	399.855	-0.356103	-0.356314	-0.00468508	2	-2.5315e-05	1.66936e-06
2	0	0	1	1	399.868	-0.359402	-0.359614	-0.00473465	2	-2.53774e-05	1.70265e-06
2	0	0	0	1	399.882	-0.362751	-0.362953	-0.00478378	2	-2.54415e-05	1.73629e-06
2	0	0	1	1	399.895	-0.3661	-0.366311	-0.00483483	2	-2.55062e-05	1.77105e-06
2	0	0	1	1	399.908	-0.369398	-0.369595	-0.00488354	2	-2.55705e-05	1.80493e-06
2	0	0	0	1	399.922	-0.372747	-0.37297	-0.00493661	2	-2.56366e-05	1.84121e-06
2	0	0	1	1	399.935	-0.376096	-0.376318	-0.00498886	2	-2.57034e-05	1.8774e-06
2	0	0	1	1	399.948	-0.379395	-0.379612	-0.00503934	2	-2.57698e-05	1.913e-06
2	0	0	0	1	399.962	-0.382743	-0.382993	-0.00509473	2	-2.5838e-05	1.95125e-06
2	0	0	1	1	399.975	-0.38607	-0.386306	-0.00514733	2	-2.59063e-05	1.98845e-06
2	0	0	1	1	399.988	-0.389407	-0.389659	-0.0052011	2	-2.59754e-05	2.02665e-06
2	0	0	0	1	400.002	-0.392756	-0.393	-0.00525735	2	-2.60457e-05	2.06614e-06
2	0	0	0	1	400.015	-0.396055	-0.396316	-0.00531142	2	-2.61157e-05	2.105e-06
2	0	0	1	1	400.028	-0.399404	-0.399643	-0.00536442	2	-2.61875e-05	2.14385e-06
2	0	0	0	1	400.042	-0.402752	-0.402987	-0.00542281	2	-2.626e-05	2.18532e-06
2	0	0	0	1	400.055	-0.406051	-0.406272	-0.0054801	2	-2.63322e-05	2.22641e-06
2	0	0	1	1	400.068	-0.4094	-0.409623	-0.00553721	2	-2.64063e-05	2.26817e-06
2	0	0	0	1	400.082	-0.412748	-0.412968	-0.00559962	2	-2.64812e-05	2.31247e-06
2	0	0	0	1	400.095	-0.416047	-0.416273	-0.00566016	2	-2.65557e-05	2.35617e-06
2	0	0	1	1	400.108	-0.419396	-0.419649	-0.0057212	2	-2.66323e-05	2.4009e-06
2	0	0	0	1	400.122	-0.422745	-0.422978	-0.00578538	2	-2.67096e-05	2.44709e-06
2	0	0	0	1	400.135	-0.426043	-0.426253	-0.00584854	2	-2.67867e-05	2.49296e-06
2	0	0	1	1	400.148	-0.429392	-0.429614	-0.00591451	2	-2.68657e-05	2.54096e-06
2	0	0	1	1	400.162	-0.432708	-0.432923	-0.00597982	2	-2.69445e-05	2.5888e-06
2	0	0	0	1	400.175	-0.436056	-0.436274	-0.0060483	2	-2.70253e-05	2.63872e-06
2	0	0	1	1	400.188	-0.439405	-0.439622	-0.00611715	2	-2.71071e-05	2.68923e-06
2	0	0	1	1	400.202	-0.442704	-0.442918	-0.0061855	2	-2.71886e-05	2.73967e-06
2	0	0	0	1	400.215	-0.446052	-0.446269	-0.00625777	2	-2.72722e-05	2.79265e-06
2	0	0	1	1	400.228	-0.449401	-0.4496	-0.00632837	2	-2.73568e-05	2.84524e-06
2	0	0	1	1	400.242	-0.4527	-0.45291	-0.00640236	2	-2.74411e-05	2.89969e-06
2	0	0	0	1	400.255	-0.456049	-0.456243	-0.00647807	2	-2.75276e-05	2.95558e-06
2	0	0	1	1	400.268	-0.459397	-0.459606	-0.00655401	2	-2.76152e-05	3.01226e-06
2	0	0	1	1	400.282	-0.462696	-0.462895	-0.00663031	2	-2.77025e-05	3.06914e-06
2	0	0	0	1	400.295	-0.466045	-0.466267	-0.00671011	2	-2.77921e-05	3.1287e-06
2	0	0	1	1	400.308	-0.469393	-0.469637	-0.00679316	2	-2.78828e-05	3.19032e-06
2	0	0	1	1	400.322	-0.472692	-0.472926	-0.00687302	2	-2.79733e-05	3.25043e-06
2	0	0	0	1	400.335	-0.476058	-0.476286	-0.00695864	2	-2.80662e-05	3.3143e-06
2	0	0	0	1	400.348	-0.479356	-0.47958	-0.0070412	2	-2.81589e-05	3.37682e-06
2	0	0	1	1	400.362	-0.482705	-0.482938	-0.00712608	2	-2.82541e-05	3.44146e-06
2	0	0	0	1	400.375	-0.486054	-0.486286	-0.00721312	2	-2.83504e-05	3.50764e-06
2	0	0	0	1	400.388	-0.489353	-0.489571	-0.00729966	2	-2.84464e-05	3.5737e-06
2	0	0	1	1	400.402	-0.492701	-0.492934	-0.00738867	2	-2.85451e-05	3.64213e-06
2	0	0	0	1	400.415	-0.49605	-0.496259	-0.00747862	2	-2.8645e-05	3.71134e-06
2	0	0	0	1	400.428	-0.499349	-0.499576	-0.00757243	2	-2.87446e-05	3.783e-06
2	0	0	1	1	400.442	-0.502698	-0.502927	-0.00766428	2	-2.88469e-05	3.85458e-06
2	0	0	0	1	400.455	-0.506046	-0.506274	-0.0077588	2	-2.89505e-05	3.92808e-06
2	0	0	0	1	400.468	-0.509345	-0.509571	-0.00785617	2	-2.90538e-05	4.00328e-06
2	0	0	1	1	400.482	-0.512694	-0.512941	-0.00795265	2	-2.916e-05	4.07924e-06
2	0	0	0	1	400.495	-0.516042	-0.516273	-0.00805091	2	-2.92675e-05	4.15646e-06
2	0	0	0	1	400.508	-0.519358	-0.519588	-0.00815361	2	-2.93747e-05	4.23652e-06
2	0	0	1	1	400.522	-0.522706	-0.522955	-0.00825648	2	-2.94849e-05	4.31777e-06
2	0	0	1	1	400.535	-0.526005	-0.526245	-0.0083573	2	-2.95949e-05	4.39798e-06
2	0	0	0	1	400.548	-0.529354	-0.52959	-0.00846267	2	-2.97078e-05	4.48175e-06
2	0	0	1	1	400.562	-0.532703	-0.532933	-0.00856589	2	-2.98222e-05	4.56504e-06
2	0	0	1	1	400.575	-0.536001	-0.536226	-0.00867176	2	-2.99362e-05	4.65002e-06
2	0	0	0	1	400.588	-0.53935	-0.539559	-0.00877882	2	-3.00534e-05	4.73669e-06
2	0	0	1	1	400.602	-0.542699	-0.542936	-0.00889074	2	-3.0172e-05	4.82711e-06
2	0	0	1	1	400.615	-0.545998	-0.546225	-0.00899965	2	-3.02904e-05	4.91583e-06
2	0	0	0	1	400.628	-0.549346	-0.549564	-0.009114	2	-3.0412e-05	5.00872e-06
2	0	0	1	1	400.642	-0.552695	-0.552926	-0.00923331	2	-3.05352e-05	5.10534e-06
2	0	0	1	1	400.655	-0.555994	-0.556247	-0.00934603	2	-3.06581e-05	5.19871e-06
2	0	0	0	1	400.668	-0.559343	-0.559596	-0.0094622	2	-3.07844e-05	5.29501e-06
2	0	0	1	1	400.681	-0.56268	-0.562923	-0.00958573	2	-3.09113e-05	5.39603e-06
2	0	0	1	1	400.695	-0.566007	-0.566267	-0.00970245	2	-3.10399e-05	5.49417e-06
2	0	0	0	1	400.708	-0.569355	-0.569611	-0.00982053	2	-3.1171e-05	5.59388e-06
2	0	0	0	1	400.721	-0.572654	-0.572917	-0.00994456	2	-3.13017e-05	5.69741e-06
2	0	0	1	1	400.735	-0.576003	-0.576247	-0.010065	2	-3.1436e-05	5.79991e-06
2	0	0	0	1	400.748	-0.579352	-0.579589	-0.0101919	2	-3.1572e-05	5.90711e-06
2	0	0	0	1	400.777	-0.586511	-0.586748	-0.0104572	2	-3.18675e-05	6.13576e-06
2	0	0	0	1	400.805	-0.593646	-0.593873	-0.0107272	2	-3.21666e-05	6.37061e-06
2	0	0	1	1	400.819	-0.596995	-0.597199	-0.0108552	2	-3.23115e-05	6.4827e-06
2	0	0	0	1	400.827	-0.599173	-0.59938	-0.0109461	2	-3.24064e-05	6.56086e-06
2	0	0	0	1	400.83	-0.599827	-0.600043	-0.0109702	2	-3.2436e-05	6.58257e-06