File: TAP_Report/Data/Res_SHU/100 uM RS 10mM SHU_02_CV_C01_2.mpt
EC-Lab ASCII FILE
Nb header lines : 53

Cyclic Voltammetry

Run on channel : 1 (SN 0696)
User :
Electrode connection : standard
Ewe ctrl range : min = -10.00 V, max = 10.00 V
Ewe,I filtering : 50 kHz
Channel : Grounded
Acquisition started on : 05/17/2017 13:04:41
Saved on :
	File : 100 uM RS 10mM SHU_02_CV_C01.mpr
	Directory : \\userfs\st659\w2k\EC-Lab\Data\ITO Characterisation 17-5-17\
	Host : 144.32.136.43
Device : SP-300 (SN 0182)
Address : USB
EC-Lab for windows v10.44 (software)
Internet server v10.44 (firmware)
Command interpretor v10.44 (firmware)
Electrode material :
Initial state :
Electrolyte :
Comments :
Cable : standard
Electrode surface area : 0.001 cm²
Characteristic mass : 0.001 g
Equivalent Weight : 0.000 g/eq.
Density : 0.000 g/cm3
Ei (V)              0.000
vs.                 Eoc
dE/dt               50.000
dE/dt unit          mV/s
E1 (V)              0.100
vs.                 Ref
Step percent        50
N                   10
E range min (V)     -10.000
E range max (V)     10.000
I Range             Auto
I Range min         Unset
I Range max         Unset
I Range init        Unset
Bandwidth           8
E2 (V)              -0.600
vs.                 Ref
nc cycles           2
Reverse Scan        1
Ef (V)              0.000
vs.                 Eoc

mode	ox/red	error	control changes	counter inc.	time/s	control/V	Ewe/V	<I>/mA	cycle number	(Q-Qo)/C	P/W
2	1	0	0	1	269.504	-0.60016	-0.600329	-0.00788971	2	-5.2167e-05	4.73642e-06
2	1	0	0	1	269.54	-0.598324	-0.598523	-0.00747565	2	-5.24416e-05	4.47434e-06
2	1	0	1	1	269.607	-0.594993	-0.595211	-0.00718997	2	-5.29259e-05	4.27955e-06
2	1	0	0	1	269.674	-0.591664	-0.591888	-0.00696068	2	-5.33933e-05	4.11995e-06
2	1	0	1	1	269.74	-0.588335	-0.588553	-0.00675795	2	-5.38464e-05	3.97741e-06
2	1	0	0	1	269.807	-0.585003	-0.585222	-0.00657652	2	-5.42866e-05	3.84873e-06
2	1	0	0	1	269.874	-0.581664	-0.581862	-0.0063982	2	-5.47161e-05	3.72287e-06
2	1	0	1	1	269.94	-0.578334	-0.578549	-0.00624145	2	-5.51333e-05	3.61098e-06
2	1	0	0	1	270.007	-0.575003	-0.575217	-0.00609224	2	-5.55403e-05	3.50436e-06
2	1	0	1	1	270.073	-0.571675	-0.571893	-0.00595214	2	-5.59377e-05	3.40398e-06
2	1	0	1	1	270.14	-0.568338	-0.568568	-0.00581506	2	-5.63265e-05	3.30625e-06
2	1	0	0	1	270.207	-0.565004	-0.565235	-0.00568988	2	-5.67066e-05	3.21612e-06
2	1	0	1	1	270.273	-0.561675	-0.561879	-0.00556555	2	-5.70777e-05	3.12717e-06
2	1	0	0	1	270.34	-0.558343	-0.558558	-0.00545052	2	-5.74409e-05	3.04443e-06
2	1	0	1	1	270.407	-0.555014	-0.555232	-0.00533996	2	-5.77966e-05	2.96491e-06
2	1	0	1	1	270.473	-0.551679	-0.551856	-0.0052323	2	-5.81456e-05	2.88747e-06
2	1	0	0	1	270.54	-0.548343	-0.54854	-0.00512842	2	-5.84875e-05	2.81314e-06
2	1	0	1	1	270.607	-0.545015	-0.545207	-0.00503086	2	-5.88222e-05	2.74286e-06
2	1	0	0	1	270.673	-0.541683	-0.54187	-0.00493334	2	-5.91504e-05	2.67323e-06
2	1	0	1	1	270.74	-0.538354	-0.538545	-0.00484243	2	-5.94723e-05	2.60787e-06
2	1	0	1	1	270.806	-0.53502	-0.535211	-0.00475248	2	-5.97887e-05	2.54358e-06
2	1	0	0	1	270.873	-0.531683	-0.531886	-0.00466462	2	-6.00993e-05	2.48104e-06
2	1	0	1	1	270.94	-0.528354	-0.528565	-0.0045803	2	-6.04036e-05	2.42099e-06
2	1	0	0	1	271.006	-0.525023	-0.525224	-0.00449941	2	-6.07025e-05	2.3632e-06
2	1	0	1	1	271.073	-0.521694	-0.521887	-0.00442079	2	-6.0996e-05	2.30715e-06
2	1	0	1	1	271.14	-0.518355	-0.518559	-0.00434125	2	-6.12851e-05	2.25119e-06
2	1	0	0	1	271.206	-0.515023	-0.515234	-0.00426648	2	-6.15682e-05	2.19824e-06
2	1	0	1	1	271.273	-0.511694	-0.51191	-0.00419215	2	-6.18464e-05	2.146e-06
2	1	0	0	1	271.34	-0.508364	-0.508569	-0.00412081	2	-6.21197e-05	2.09572e-06
2	1	0	1	1	271.406	-0.505033	-0.505236	-0.00405049	2	-6.23883e-05	2.04646e-06
2	1	0	1	1	271.473	-0.501695	-0.501898	-0.00398049	2	-6.2653e-05	1.9978e-06
2	1	0	0	1	271.54	-0.498362	-0.498549	-0.00391336	2	-6.29124e-05	1.951e-06
2	1	0	1	1	271.606	-0.495034	-0.495228	-0.00384867	2	-6.31673e-05	1.90597e-06
2	1	0	0	1	271.673	-0.491705	-0.491891	-0.00378316	2	-6.3418e-05	1.8609e-06
2	1	0	1	1	271.739	-0.488373	-0.488583	-0.00371972	2	-6.36643e-05	1.81739e-06
2	1	0	1	1	271.806	-0.485034	-0.485228	-0.00365718	2	-6.39072e-05	1.77457e-06
2	1	0	0	1	271.873	-0.481703	-0.481901	-0.0035961	2	-6.41452e-05	1.73297e-06
2	1	0	1	1	271.939	-0.478373	-0.47858	-0.00353615	2	-6.43792e-05	1.69233e-06
2	1	0	0	1	272.006	-0.475045	-0.475245	-0.0034761	2	-6.46092e-05	1.652e-06
2	1	0	0	1	272.073	-0.471708	-0.47191	-0.00341676	2	-6.48356e-05	1.6124e-06
2	1	0	1	1	272.139	-0.468374	-0.468571	-0.00335838	2	-6.50581e-05	1.57364e-06
2	1	0	0	1	272.206	-0.465044	-0.465219	-0.00330189	2	-6.52764e-05	1.5361e-06
2	1	0	1	1	272.273	-0.461713	-0.461889	-0.00324552	2	-6.54909e-05	1.49907e-06
2	1	0	0	1	272.339	-0.458384	-0.458563	-0.00318999	2	-6.57018e-05	1.46281e-06
2	1	0	0	1	272.406	-0.455049	-0.4552	-0.00313422	2	-6.59092e-05	1.4267e-06
2	1	0	1	1	272.473	-0.451714	-0.451882	-0.00308138	2	-6.6113e-05	1.39242e-06
2	1	0	0	1	272.539	-0.448385	-0.448557	-0.00302755	2	-6.6313e-05	1.35803e-06
2	1	0	1	1	272.606	-0.445053	-0.445226	-0.00297604	2	-6.65095e-05	1.32501e-06
2	1	0	0	1	272.672	-0.441724	-0.441923	-0.00292313	2	-6.67025e-05	1.2918e-06
2	1	0	0	1	272.739	-0.438389	-0.438565	-0.00287082	2	-6.68923e-05	1.25904e-06
2	1	0	1	1	272.806	-0.435053	-0.435236	-0.00282101	2	-6.70786e-05	1.22781e-06
2	1	0	0	1	272.872	-0.431725	-0.431901	-0.00277148	2	-6.72614e-05	1.197e-06
2	1	0	1	1	272.939	-0.428394	-0.42858	-0.00271995	2	-6.74408e-05	1.16572e-06
2	1	0	0	1	273.006	-0.425064	-0.425257	-0.00267184	2	-6.76169e-05	1.13622e-06
2	1	0	0	1	273.072	-0.421729	-0.421927	-0.00262367	2	-6.77901e-05	1.107e-06
2	1	0	1	1	273.139	-0.418393	-0.418605	-0.0025745	2	-6.796e-05	1.0777e-06
2	1	0	0	1	273.206	-0.415064	-0.41526	-0.00252768	2	-6.81264e-05	1.04965e-06
2	1	0	1	1	273.272	-0.411734	-0.411924	-0.00247945	2	-6.82897e-05	1.02135e-06
2	1	0	0	1	273.339	-0.408403	-0.408616	-0.00243249	2	-6.84498e-05	9.93956e-07
2	1	0	0	1	273.406	-0.405065	-0.405262	-0.00238717	2	-6.86074e-05	9.67428e-07
2	1	0	1	1	273.472	-0.401733	-0.401951	-0.0023402	2	-6.87614e-05	9.40645e-07
2	1	0	0	1	273.539	-0.398404	-0.39863	-0.00229547	2	-6.89123e-05	9.15043e-07
2	1	0	1	1	273.605	-0.395074	-0.395293	-0.00225104	2	-6.90603e-05	8.8982e-07
2	1	0	0	1	273.672	-0.391743	-0.391967	-0.0022069	2	-6.92052e-05	8.65033e-07
2	1	0	0	1	273.739	-0.388404	-0.388609	-0.00216314	2	-6.93478e-05	8.40617e-07
2	1	0	1	1	273.805	-0.385073	-0.385298	-0.00211897	2	-6.9487e-05	8.16436e-07
2	1	0	0	1	273.872	-0.381744	-0.381968	-0.00207609	2	-6.96233e-05	7.93002e-07
2	1	0	1	1	273.939	-0.378415	-0.378599	-0.00203562	2	-6.97568e-05	7.70685e-07
2	1	0	0	1	274.005	-0.375083	-0.375271	-0.00199404	2	-6.98876e-05	7.48306e-07
2	1	0	0	1	274.072	-0.371744	-0.371939	-0.00195248	2	-7.00159e-05	7.26202e-07
2	1	0	1	1	274.139	-0.368414	-0.368598	-0.00191235	2	-7.01412e-05	7.04888e-07
2	1	0	0	1	274.205	-0.365083	-0.36527	-0.00187256	2	-7.02639e-05	6.83991e-07
2	1	0	1	1	274.272	-0.361755	-0.36196	-0.00183401	2	-7.03839e-05	6.63837e-07
2	1	0	1	1	274.338	-0.358418	-0.358625	-0.00179431	2	-7.05014e-05	6.43483e-07
2	1	0	0	1	274.405	-0.355084	-0.355292	-0.00175507	2	-7.06164e-05	6.23562e-07
2	1	0	1	1	274.472	-0.351754	-0.35197	-0.00171712	2	-7.07286e-05	6.04376e-07
2	1	0	0	1	274.538	-0.348423	-0.348635	-0.0016788	2	-7.08383e-05	5.85288e-07
2	1	0	1	1	274.605	-0.345094	-0.345294	-0.00164251	2	-7.09456e-05	5.6715e-07
2	1	0	1	1	274.672	-0.341759	-0.341971	-0.00160637	2	-7.10506e-05	5.49332e-07
2	1	0	0	1	274.738	-0.338423	-0.338607	-0.0015693	2	-7.11531e-05	5.31374e-07
2	1	0	1	1	274.805	-0.335095	-0.335279	-0.00153411	2	-7.12531e-05	5.14353e-07
2	1	0	0	1	274.872	-0.331763	-0.331942	-0.00149968	2	-7.13507e-05	4.97806e-07
2	1	0	1	1	274.938	-0.328434	-0.32861	-0.0014639	2	-7.1446e-05	4.81054e-07
2	1	0	1	1	275.005	-0.3251	-0.325254	-0.00143029	2	-7.15392e-05	4.65209e-07
2	1	0	0	1	275.072	-0.321763	-0.321934	-0.00139734	2	-7.16301e-05	4.49851e-07
2	1	0	1	1	275.138	-0.318434	-0.318614	-0.00136417	2	-7.17187e-05	4.34642e-07
2	1	0	0	1	275.205	-0.315103	-0.315274	-0.00133228	2	-7.18052e-05	4.20032e-07
2	1	0	1	1	275.271	-0.311774	-0.311965	-0.00130038	2	-7.18894e-05	4.05673e-07
2	1	0	1	1	275.338	-0.308435	-0.308616	-0.00126847	2	-7.19718e-05	3.9147e-07
2	1	0	0	1	275.405	-0.305103	-0.305284	-0.00123683	2	-7.20518e-05	3.77584e-07
2	1	0	1	1	275.471	-0.301774	-0.301951	-0.00120621	2	-7.21298e-05	3.64215e-07
2	1	0	0	1	275.538	-0.298444	-0.298616	-0.00117534	2	-7.22058e-05	3.50974e-07
2	1	0	1	1	275.605	-0.295113	-0.295275	-0.00114562	2	-7.22797e-05	3.38273e-07
2	1	0	1	1	275.671	-0.291775	-0.29193	-0.00111637	2	-7.23518e-05	3.25902e-07
2	1	0	0	1	275.738	-0.288442	-0.288588	-0.00108705	2	-7.24218e-05	3.13709e-07
2	1	0	1	1	275.805	-0.285114	-0.285246	-0.0010571	2	-7.24898e-05	3.01533e-07
2	1	0	0	1	275.871	-0.281785	-0.28191	-0.00102955	2	-7.2556e-05	2.90241e-07
2	1	0	1	1	275.938	-0.278453	-0.278587	-0.00100163	2	-7.26203e-05	2.7904e-07
2	1	0	1	1	276.005	-0.275114	-0.275251	-0.000974782	2	-7.26829e-05	2.6831e-07
2	1	0	0	1	276.071	-0.271783	-0.271943	-0.000946771	2	-7.27436e-05	2.57468e-07
2	1	0	1	1	276.138	-0.268453	-0.268614	-0.000919432	2	-7.28024e-05	2.46973e-07
2	1	0	0	1	276.204	-0.265125	-0.265285	-0.000892919	2	-7.28594e-05	2.36878e-07
2	1	0	0	1	276.271	-0.261788	-0.261937	-0.000866959	2	-7.29147e-05	2.27089e-07
2	1	0	1	1	276.338	-0.258454	-0.258609	-0.000840871	2	-7.29683e-05	2.17456e-07
2	1	0	0	1	276.404	-0.255124	-0.255299	-0.000815665	2	-7.30202e-05	2.08238e-07
2	1	0	1	1	276.471	-0.251793	-0.251965	-0.000789746	2	-7.30703e-05	1.98988e-07
2	1	0	0	1	276.538	-0.248464	-0.24865	-0.000764451	2	-7.31186e-05	1.90081e-07
2	1	0	0	1	276.604	-0.245128	-0.245295	-0.000738762	2	-7.31654e-05	1.81215e-07
2	1	0	1	1	276.671	-0.241794	-0.241966	-0.000713578	2	-7.32105e-05	1.72661e-07
2	1	0	0	1	276.738	-0.238465	-0.238648	-0.000689388	2	-7.32539e-05	1.64521e-07
2	1	0	1	1	276.804	-0.235133	-0.235313	-0.000663887	2	-7.32956e-05	1.56221e-07
2	1	0	0	1	276.871	-0.231804	-0.231994	-0.00064022	2	-7.33357e-05	1.48527e-07
2	1	0	0	1	276.937	-0.228469	-0.22867	-0.000616573	2	-7.33743e-05	1.40992e-07
2	1	0	1	1	277.004	-0.225133	-0.225327	-0.000591203	2	-7.34112e-05	1.33214e-07
2	1	0	0	1	277.071	-0.221805	-0.221991	-0.000566824	2	-7.34464e-05	1.2583e-07
2	1	0	1	1	277.137	-0.218474	-0.218654	-0.00054187	2	-7.348e-05	1.18482e-07
2	1	0	0	1	277.204	-0.215144	-0.215337	-0.000517885	2	-7.35119e-05	1.1152e-07
2	1	0	0	1	277.291	-0.210811	-0.210973	-0.000480744	2	-7.35521e-05	1.01424e-07
2	1	0	1	1	277.377	-0.206474	-0.206643	-0.000441823	2	-7.35901e-05	9.12997e-08
2	1	0	0	1	277.444	-0.203144	-0.203314	-0.000417619	2	-7.36164e-05	8.49081e-08
2	1	0	1	1	277.511	-0.199813	-0.199964	-0.000392114	2	-7.3641e-05	7.84088e-08
2	1	0	0	1	277.577	-0.196484	-0.196646	-0.000368532	2	-7.3664e-05	7.24702e-08
2	1	0	0	1	277.644	-0.193149	-0.19332	-0.000343266	2	-7.36853e-05	6.63602e-08
2	1	0	1	1	277.711	-0.189813	-0.190001	-0.000319432	2	-7.37051e-05	6.06925e-08
2	1	0	0	1	277.777	-0.186485	-0.186665	-0.000293989	2	-7.37231e-05	5.48773e-08
2	1	0	1	1	277.844	-0.183153	-0.183333	-0.000267745	2	-7.37394e-05	4.90864e-08
2	1	0	0	1	277.91	-0.179824	-0.179982	-0.000242026	2	-7.3754e-05	4.35603e-08
2	1	0	0	1	277.977	-0.17649	-0.176661	-0.000216651	2	-7.37669e-05	3.82736e-08
2	1	0	1	1	278.044	-0.173153	-0.173331	-0.00019084	2	-7.37782e-05	3.30785e-08
2	1	0	0	1	278.11	-0.169824	-0.170002	-0.000163836	2	-7.37876e-05	2.78525e-08
2	1	0	1	1	278.177	-0.166493	-0.166645	-0.000138061	2	-7.37953e-05	2.30073e-08
2	1	0	0	1	278.244	-0.163164	-0.163313	-0.000113322	2	-7.38013e-05	1.8507e-08
2	1	0	0	1	278.31	-0.159825	-0.159977	-8.71059e-05	2	-7.38056e-05	1.39349e-08
2	1	0	1	1	278.377	-0.156493	-0.156616	-6.10461e-05	2	-7.38082e-05	9.56077e-09
2	1	0	0	1	278.444	-0.153164	-0.153288	-3.74451e-05	2	-7.38091e-05	5.73989e-09
2	1	0	1	1	278.51	-0.149834	-0.149984	-1.25818e-05	2	-7.38083e-05	1.88706e-09
2	1	0	0	1	278.577	-0.146503	-0.14665	1.14947e-05	2	-7.3806e-05	1.6857e-09
2	1	0	0	1	278.644	-0.143165	-0.143305	3.71032e-05	2	-7.38019e-05	5.31707e-09
2	1	0	1	1	278.71	-0.139832	-0.139971	6.17276e-05	2	-7.37963e-05	8.64007e-09
2	1	0	0	1	278.777	-0.136504	-0.136642	8.55082e-05	2	-7.3789e-05	1.1684e-08
2	1	0	1	1	278.843	-0.133175	-0.133307	0.000109591	2	-7.37801e-05	1.46092e-08
2	1	0	0	1	278.91	-0.129843	-0.129994	0.000134283	2	-7.37696e-05	1.7456e-08
2	1	0	0	1	278.977	-0.126504	-0.12665	0.000157875	2	-7.37574e-05	1.99949e-08
2	1	0	1	1	279.043	-0.123173	-0.123301	0.000181314	2	-7.37437e-05	2.23562e-08
2	1	0	0	1	279.11	-0.119843	-0.11998	0.000204659	2	-7.37285e-05	2.4555e-08
2	1	0	1	1	279.177	-0.116515	-0.116638	0.000227502	2	-7.37117e-05	2.65354e-08
2	1	0	1	1	279.243	-0.113178	-0.113293	0.000250392	2	-7.36934e-05	2.83677e-08
2	1	0	0	1	279.31	-0.109844	-0.109953	0.000271656	2	-7.36736e-05	2.98695e-08
2	1	0	1	1	279.377	-0.106514	-0.106622	0.000293059	2	-7.36523e-05	3.12467e-08
2	1	0	0	1	279.443	-0.103183	-0.103312	0.000314686	2	-7.36297e-05	3.25109e-08
2	1	0	1	1	279.51	-0.0998544	-0.0999955	0.000335111	2	-7.36057e-05	3.35096e-08
2	1	0	1	1	279.576	-0.0965179	-0.0966441	0.00035534	2	-7.35802e-05	3.43416e-08
2	1	0	0	1	279.643	-0.0931836	-0.0932901	0.000376512	2	-7.35534e-05	3.51249e-08
2	1	0	1	1	279.71	-0.0898549	-0.0899609	0.000394734	2	-7.35253e-05	3.55106e-08
2	1	0	0	1	279.776	-0.0865228	-0.086648	0.000412244	2	-7.34961e-05	3.57201e-08
2	1	0	1	1	279.843	-0.0831941	-0.0833114	0.000428197	2	-7.34657e-05	3.56737e-08
2	1	0	1	1	279.91	-0.0798587	-0.0799832	0.000443341	2	-7.34342e-05	3.54598e-08
2	1	0	0	1	279.976	-0.0765233	-0.0766615	0.000457483	2	-7.34017e-05	3.50713e-08
2	1	0	1	1	280.043	-0.0731945	-0.0733297	0.000471704	2	-7.33684e-05	3.45899e-08
2	1	0	0	1	280.11	-0.0698636	-0.0699938	0.00048377	2	-7.33342e-05	3.38609e-08
2	1	0	1	1	280.176	-0.0665337	-0.0666714	0.000493886	2	-7.32992e-05	3.2928e-08
2	1	0	1	1	280.243	-0.0631995	-0.0633365	0.000503578	2	-7.32635e-05	3.18949e-08
2	1	0	0	1	280.31	-0.059863	-0.0600037	0.000512506	2	-7.32272e-05	3.07522e-08
2	1	0	1	1	280.376	-0.0565342	-0.0566937	0.000519697	2	-7.31904e-05	2.94635e-08
2	1	0	0	1	280.443	-0.0532033	-0.0533469	0.00052631	2	-7.31532e-05	2.8077e-08
2	1	0	1	1	280.509	-0.0498734	-0.0500145	0.000531673	2	-7.31156e-05	2.65914e-08
2	1	0	1	1	280.576	-0.0465347	-0.0466653	0.000535903	2	-7.30775e-05	2.50081e-08
2	1	0	0	1	280.643	-0.0432027	-0.0433381	0.000538708	2	-7.30394e-05	2.33466e-08
2	1	0	1	1	280.709	-0.0398739	-0.0400053	0.000541333	2	-7.3001e-05	2.16562e-08
2	1	0	0	1	280.776	-0.0365441	-0.0366692	0.000542116	2	-7.29624e-05	1.9879e-08
2	1	0	1	1	280.843	-0.0332131	-0.0333302	0.000543013	2	-7.29239e-05	1.80987e-08
2	1	0	1	1	280.909	-0.0298744	-0.0299907	0.000541929	2	-7.28852e-05	1.62528e-08
2	1	0	0	1	280.976	-0.0265434	-0.02665	0.000540775	2	-7.28467e-05	1.44117e-08
2	1	0	1	1	281.043	-0.0232136	-0.0233313	0.000539064	2	-7.28084e-05	1.25771e-08
2	1	0	0	1	281.109	-0.0198849	-0.0200226	0.000536622	2	-7.27701e-05	1.07446e-08
2	1	0	1	1	281.176	-0.0165528	-0.0166914	0.000534172	2	-7.27321e-05	8.91608e-09
2	1	0	1	1	281.243	-0.0132141	-0.0133525	0.000530093	2	-7.26941e-05	7.07806e-09
2	1	0	0	1	281.309	-0.00988312	-0.0100146	0.000528394	2	-7.26564e-05	5.29164e-09
2	1	0	1	1	281.376	-0.00655328	-0.00668349	0.000524232	2	-7.2619e-05	3.5037e-09
2	1	0	0	1	281.442	-0.00322455	-0.00337367	0.000520445	2	-7.25817e-05	1.75581e-09
2	1	0	0	1	281.509	0.000124452	-2.95164e-05	0.000516775	2	-7.25447e-05	1.52533e-11
2	1	0	1	1	281.576	0.00344624	0.00334496	0.000513299	2	-7.25079e-05	1.71697e-09
2	1	0	0	1	281.642	0.00677608	0.00666077	0.000508757	2	-7.24715e-05	3.38872e-09
2	1	0	1	1	281.709	0.010107	0.00999299	0.000504348	2	-7.24353e-05	5.03995e-09
2	1	0	0	1	281.776	0.0134358	0.0133402	0.000500019	2	-7.23994e-05	6.67037e-09
2	1	0	0	1	281.842	0.0167711	0.0166795	0.00049697	2	-7.23637e-05	8.28919e-09
2	1	0	1	1	281.909	0.0201065	0.0200205	0.000493034	2	-7.23282e-05	9.87076e-09
2	1	0	0	1	281.976	0.0234353	0.023344	0.000489516	2	-7.22931e-05	1.14272e-08
2	1	0	1	1	282.042	0.0267673	0.0266618	0.000484765	2	-7.22582e-05	1.29247e-08
2	1	0	0	1	282.109	0.0300961	0.0299963	0.000481678	2	-7.22236e-05	1.44486e-08
2	1	0	0	1	282.175	0.0334303	0.0333378	0.000477669	2	-7.21892e-05	1.59244e-08
2	1	0	1	1	282.242	0.0367668	0.0366806	0.00047433	2	-7.2155e-05	1.73987e-08
2	1	0	0	1	282.309	0.0400956	0.0400042	0.000470915	2	-7.21211e-05	1.88386e-08
2	1	0	1	1	282.375	0.0434265	0.0433395	0.000467559	2	-7.20873e-05	2.02638e-08
2	1	0	0	1	282.442	0.0467564	0.0466761	0.000466214	2	-7.20537e-05	2.1761e-08
2	1	0	0	1	282.509	0.0500907	0.0500094	0.000462397	2	-7.20203e-05	2.31242e-08
2	1	0	1	1	282.575	0.0534272	0.0533575	0.000459807	2	-7.19871e-05	2.45341e-08
2	1	0	0	1	282.642	0.0567559	0.0566904	0.0004584	2	-7.19541e-05	2.59869e-08
2	1	0	1	1	282.709	0.0600857	0.0600321	0.000455271	2	-7.19212e-05	2.73309e-08
2	1	0	0	1	282.775	0.0634167	0.0633677	0.000453403	2	-7.18884e-05	2.87311e-08
2	1	0	0	1	282.842	0.0667554	0.0666738	0.000451786	2	-7.18557e-05	3.01223e-08
2	1	0	1	1	282.909	0.0700875	0.0700159	0.000450578	2	-7.18232e-05	3.15476e-08
2	1	0	0	1	282.975	0.0734162	0.0733483	0.000449159	2	-7.17908e-05	3.2945e-08
2	1	0	1	1	283.042	0.0767449	0.0766714	0.000448141	2	-7.17585e-05	3.43596e-08
2	1	0	0	1	283.108	0.080077	0.0800027	0.00044667	2	-7.17262e-05	3.57348e-08
2	1	0	0	1	283.175	0.0834157	0.0833487	0.000445396	2	-7.1694e-05	3.71232e-08
2	1	0	1	1	283.242	0.0867467	0.0866638	0.000444721	2	-7.16618e-05	3.85412e-08
2	1	0	0	1	283.308	0.0900765	0.0899668	0.00044429	2	-7.16298e-05	3.99714e-08
2	1	0	1	1	283.375	0.0934052	0.0933158	0.000443603	2	-7.15977e-05	4.13951e-08
2	1	0	0	1	283.442	0.0967373	0.0966491	0.000445061	2	-7.15656e-05	4.30148e-08
2	1	0	0	1	283.488	0.0990764	0.0989945	0.000443697	2	-7.15431e-05	4.39236e-08
2	0	0	0	1	283.506	0.0999061	0.099826	0.000438587	2	-7.15348e-05	4.37824e-08
2	0	0	0	1	283.542	0.0980701	0.0979667	0.000318648	2	-7.15242e-05	3.12169e-08
2	0	0	1	1	283.609	0.0947392	0.0946325	0.000252624	2	-7.15078e-05	2.39065e-08
2	0	0	0	1	283.676	0.0914093	0.0913052	0.000200659	2	-7.14953e-05	1.83212e-08
2	0	0	1	1	283.742	0.0880806	0.0879575	0.000154944	2	-7.14861e-05	1.36285e-08
2	0	0	0	1	283.809	0.0847485	0.084636	0.000113517	2	-7.14797e-05	9.6076e-09
2	0	0	0	1	283.876	0.0814098	0.0812904	7.39295e-05	2	-7.1476e-05	6.00976e-09
2	0	0	1	1	283.942	0.0780789	0.0779772	3.6789e-05	2	-7.14749e-05	2.8687e-09
2	0	0	0	1	284.009	0.074749	0.0746334	1.91014e-06	2	-7.14762e-05	1.4256e-10
2	0	0	1	1	284.075	0.0714203	0.0713036	-3.03145e-05	2	-7.14797e-05	2.16153e-09
2	0	0	1	1	284.142	0.0680838	0.0679763	-6.27195e-05	2	-7.14853e-05	4.26344e-09
2	0	0	0	1	284.209	0.0647495	0.0646296	-9.32298e-05	2	-7.1493e-05	6.0254e-09
2	0	0	1	1	284.275	0.0614197	0.0613253	-0.000122301	2	-7.15027e-05	7.50018e-09
2	0	0	0	1	284.342	0.0580887	0.0579919	-0.000150652	2	-7.15143e-05	8.73661e-09
2	0	0	1	1	284.409	0.05476	0.054663	-0.000177713	2	-7.15278e-05	9.71434e-09
2	0	0	1	1	284.475	0.0514246	0.0513056	-0.000204295	2	-7.1543e-05	1.04815e-08
2	0	0	0	1	284.542	0.0480892	0.0479725	-0.000229855	2	-7.156e-05	1.10267e-08
2	0	0	1	1	284.609	0.0447605	0.0446403	-0.000255509	2	-7.15787e-05	1.1406e-08
2	0	0	0	1	284.675	0.0414284	0.0412885	-0.000279379	2	-7.1599e-05	1.15352e-08
2	0	0	1	1	284.742	0.0380997	0.0379671	-0.000301682	2	-7.16208e-05	1.1454e-08
2	0	0	1	1	284.808	0.0347643	0.034626	-0.000325832	2	-7.16443e-05	1.12822e-08
2	0	0	0	1	284.875	0.0314289	0.0312693	-0.000346562	2	-7.16692e-05	1.08368e-08
2	0	0	1	1	284.942	0.0281002	0.027953	-0.000368942	2	-7.16955e-05	1.0313e-08
2	0	0	0	1	285.008	0.0247692	0.0246319	-0.00038952	2	-7.17232e-05	9.59461e-09
2	0	0	1	1	285.075	0.0214394	0.0212991	-0.000409592	2	-7.17523e-05	8.72393e-09
2	0	0	1	1	285.142	0.0181051	0.0179657	-0.000429411	2	-7.17828e-05	7.71468e-09
2	0	0	0	1	285.208	0.0147686	0.0146451	-0.000447919	2	-7.18145e-05	6.55981e-09
2	0	0	1	1	285.275	0.0114399	0.0112909	-0.00046848	2	-7.18475e-05	5.28955e-09
2	0	0	0	1	285.342	0.00811001	0.00795473	-0.000487877	2	-7.18819e-05	3.88093e-09
2	0	0	1	1	285.408	0.00477906	0.00464524	-0.000505355	2	-7.19174e-05	2.34749e-09
2	0	0	1	1	285.475	0.00144034	0.00125995	-0.000524866	2	-7.19543e-05	6.61304e-10
2	0	0	0	1	285.542	-0.00189173	-0.00208078	-0.000542213	2	-7.19923e-05	1.12823e-09
2	0	0	1	1	285.608	-0.00522046	-0.00539047	-0.000558756	2	-7.20315e-05	3.01196e-09
2	0	0	0	1	285.675	-0.00854919	-0.00873346	-0.000576175	2	-7.20718e-05	5.032e-09
2	0	0	1	1	285.741	-0.0118813	-0.0120586	-0.000592527	2	-7.21132e-05	7.14507e-09
2	0	0	1	1	285.808	-0.01522	-0.0154108	-0.000609408	2	-7.21558e-05	9.39147e-09
2	0	0	0	1	285.875	-0.0185509	-0.0187279	-0.000624857	2	-7.21994e-05	1.17023e-08
2	0	0	1	1	285.941	-0.0218808	-0.0220506	-0.000641471	2	-7.2244e-05	1.41448e-08
2	0	0	0	1	286.008	-0.0252095	-0.0253812	-0.000656243	2	-7.22897e-05	1.66562e-08
2	0	0	1	1	286.075	-0.0285416	-0.0287188	-0.000671724	2	-7.23364e-05	1.92911e-08
2	0	0	1	1	286.141	-0.0318803	-0.0320535	-0.000687404	2	-7.23843e-05	2.20337e-08
2	0	0	0	1	286.208	-0.0352101	-0.0353856	-0.000702467	2	-7.2433e-05	2.48572e-08
2	0	0	1	1	286.275	-0.0385411	-0.0387192	-0.000717887	2	-7.24827e-05	2.7796e-08
2	0	0	0	1	286.341	-0.0418698	-0.042082	-0.000732385	2	-7.25335e-05	3.08202e-08
2	0	0	0	1	286.408	-0.0452063	-0.0454054	-0.000745986	2	-7.25852e-05	3.38718e-08
2	0	0	1	1	286.475	-0.0485406	-0.0487454	-0.000759856	2	-7.26379e-05	3.70395e-08
2	0	0	0	1	286.541	-0.0518693	-0.0520727	-0.000774533	2	-7.26914e-05	4.0332e-08
2	0	0	1	1	286.608	-0.0552014	-0.0554093	-0.00078805	2	-7.27459e-05	4.36653e-08
2	0	0	0	1	286.674	-0.0585301	-0.0587464	-0.00080221	2	-7.28013e-05	4.7127e-08
2	0	0	0	1	286.741	-0.0618655	-0.0620666	-0.000815711	2	-7.28576e-05	5.06284e-08
2	0	0	1	1	286.808	-0.0652009	-0.0653967	-0.000829128	2	-7.29149e-05	5.42223e-08
2	0	0	0	1	286.874	-0.0685297	-0.0687275	-0.000842153	2	-7.2973e-05	5.7879e-08
2	0	0	1	1	286.941	-0.0718617	-0.0720551	-0.000856319	2	-7.3032e-05	6.17022e-08
2	0	0	0	1	287.008	-0.0751905	-0.075406	-0.000868459	2	-7.30919e-05	6.5487e-08
2	0	0	0	1	287.074	-0.0785247	-0.0787292	-0.000882287	2	-7.31527e-05	6.94618e-08
2	0	0	1	1	287.141	-0.0818612	-0.0820659	-0.000895748	2	-7.32144e-05	7.35103e-08
2	0	0	0	1	287.208	-0.08519	-0.08538	-0.000907702	2	-7.32769e-05	7.74995e-08
2	0	0	1	1	287.274	-0.0885209	-0.0886932	-0.000921147	2	-7.33402e-05	8.16995e-08
2	0	0	0	1	287.357	-0.0926868	-0.092854	-0.000925558	2	-7.34216e-05	8.59418e-08
2	0	0	0	1	287.441	-0.09685	-0.0970113	-0.000939769	2	-7.3504e-05	9.11682e-08
2	0	0	1	1	287.507	-0.100181	-0.100331	-0.00095137	2	-7.35702e-05	9.54519e-08
2	0	0	1	1	287.574	-0.10352	-0.103674	-0.000964806	2	-7.36374e-05	1.00025e-07
2	0	0	0	1	287.641	-0.106852	-0.107001	-0.000977707	2	-7.37053e-05	1.04615e-07
2	0	0	1	1	287.707	-0.11018	-0.110321	-0.000990408	2	-7.37741e-05	1.09262e-07
2	0	0	0	1	287.774	-0.11351	-0.113653	-0.001004	2	-7.38437e-05	1.14107e-07
2	0	0	1	1	287.841	-0.116841	-0.116987	-0.00101605	2	-7.39142e-05	1.18864e-07
2	0	0	1	1	287.907	-0.12018	-0.120327	-0.00102904	2	-7.39858e-05	1.23821e-07
2	0	0	0	1	287.974	-0.123511	-0.123659	-0.00104238	2	-7.4058e-05	1.28899e-07
2	0	0	1	1	288.041	-0.126841	-0.127	-0.00105616	2	-7.41312e-05	1.34132e-07
2	0	0	0	1	288.107	-0.130169	-0.130339	-0.0010699	2	-7.42053e-05	1.39449e-07
2	0	0	1	1	288.174	-0.133502	-0.133657	-0.00108358	2	-7.42803e-05	1.44827e-07
2	0	0	1	1	288.241	-0.13684	-0.137026	-0.00109869	2	-7.43564e-05	1.50549e-07
2	0	0	0	1	288.307	-0.14017	-0.140339	-0.00111289	2	-7.44334e-05	1.56182e-07
2	0	0	1	1	288.374	-0.143501	-0.143676	-0.00112789	2	-7.45113e-05	1.62051e-07
2	0	0	0	1	288.44	-0.14683	-0.147008	-0.00114441	2	-7.45902e-05	1.68237e-07
2	0	0	0	1	288.507	-0.150166	-0.150318	-0.00116025	2	-7.46703e-05	1.74406e-07
2	0	0	1	1	288.574	-0.153501	-0.153647	-0.0011759	2	-7.47515e-05	1.80674e-07
2	0	0	0	1	288.64	-0.15683	-0.156984	-0.00119425	2	-7.48337e-05	1.87479e-07
2	0	0	1	1	288.707	-0.160161	-0.16032	-0.00121337	2	-7.49171e-05	1.94527e-07
2	0	0	0	1	288.774	-0.16349	-0.163658	-0.00123144	2	-7.50017e-05	2.01535e-07
2	0	0	0	1	288.84	-0.166825	-0.16701	-0.00125105	2	-7.50878e-05	2.08939e-07
2	0	0	1	1	288.907	-0.170161	-0.170347	-0.00127114	2	-7.51752e-05	2.16535e-07
2	0	0	0	1	288.974	-0.17349	-0.173662	-0.00129273	2	-7.52638e-05	2.24498e-07
2	0	0	1	1	289.04	-0.176822	-0.176998	-0.00131433	2	-7.53539e-05	2.32633e-07
2	0	0	0	1	289.107	-0.18015	-0.180329	-0.00133637	2	-7.54454e-05	2.40987e-07
2	0	0	0	1	289.173	-0.183485	-0.183668	-0.00135953	2	-7.55386e-05	2.49703e-07
2	0	0	1	1	289.24	-0.186821	-0.187011	-0.00138242	2	-7.56333e-05	2.58527e-07
2	0	0	0	1	289.307	-0.19015	-0.190325	-0.00140608	2	-7.57295e-05	2.67612e-07
2	0	0	1	1	289.373	-0.193481	-0.19364	-0.00143246	2	-7.58273e-05	2.77382e-07
2	0	0	0	1	289.44	-0.196811	-0.196968	-0.0014566	2	-7.59268e-05	2.86904e-07
2	0	0	0	1	289.507	-0.20015	-0.200319	-0.00148358	2	-7.60283e-05	2.97191e-07
2	0	0	1	1	289.573	-0.203482	-0.203655	-0.00150979	2	-7.61313e-05	3.07477e-07
2	0	0	0	1	289.64	-0.20681	-0.206976	-0.00153628	2	-7.62361e-05	3.17973e-07
2	0	0	1	1	289.707	-0.21014	-0.210314	-0.00156383	2	-7.63426e-05	3.28896e-07
2	0	0	0	1	289.773	-0.213471	-0.213663	-0.00159311	2	-7.64511e-05	3.40389e-07
2	0	0	0	1	289.84	-0.21681	-0.217009	-0.00162102	2	-7.65617e-05	3.51776e-07
2	0	0	1	1	289.907	-0.220142	-0.220309	-0.00164993	2	-7.66739e-05	3.63493e-07
2	0	0	0	1	289.973	-0.223471	-0.22368	-0.00167952	2	-7.67881e-05	3.75675e-07
2	0	0	1	1	290.04	-0.226799	-0.226993	-0.00170989	2	-7.69043e-05	3.88132e-07
2	0	0	0	1	290.106	-0.230131	-0.230315	-0.00174035	2	-7.70225e-05	4.00829e-07
2	0	0	0	1	290.173	-0.23347	-0.233646	-0.00177028	2	-7.71431e-05	4.13617e-07
2	0	0	1	1	290.24	-0.236801	-0.236995	-0.00180369	2	-7.72655e-05	4.27467e-07
2	0	0	0	1	290.306	-0.240131	-0.240303	-0.00183556	2	-7.739e-05	4.4109e-07
2	0	0	1	1	290.373	-0.24346	-0.243636	-0.00186879	2	-7.75166e-05	4.55303e-07
2	0	0	1	1	290.44	-0.246796	-0.246987	-0.00190164	2	-7.76457e-05	4.6968e-07
2	0	0	0	1	290.506	-0.25013	-0.250303	-0.0019344	2	-7.7777e-05	4.84185e-07
2	0	0	1	1	290.573	-0.25346	-0.253653	-0.00196828	2	-7.79103e-05	4.9926e-07
2	0	0	0	1	290.64	-0.256791	-0.256954	-0.00200292	2	-7.80459e-05	5.14657e-07
2	0	0	1	1	290.706	-0.26012	-0.260278	-0.00203822	2	-7.81838e-05	5.30504e-07
2	0	0	1	1	290.773	-0.263456	-0.263614	-0.00207374	2	-7.83242e-05	5.46668e-07
2	0	0	0	1	290.84	-0.266791	-0.26696	-0.00210854	2	-7.84671e-05	5.62895e-07
2	0	0	1	1	290.906	-0.270119	-0.270283	-0.00214605	2	-7.86121e-05	5.80042e-07
2	0	0	0	1	290.973	-0.273452	-0.273622	-0.00218212	2	-7.87596e-05	5.97078e-07
2	0	0	1	1	291.039	-0.27678	-0.276939	-0.00221783	2	-7.89095e-05	6.14203e-07
2	0	0	1	1	291.106	-0.280116	-0.280269	-0.00225594	2	-7.90621e-05	6.32269e-07
2	0	0	0	1	291.173	-0.283451	-0.283603	-0.00229374	2	-7.92171e-05	6.50513e-07
2	0	0	1	1	291.239	-0.28678	-0.28693	-0.00233106	2	-7.93745e-05	6.6885e-07
2	0	0	0	1	291.306	-0.290111	-0.290271	-0.00236999	2	-7.95345e-05	6.87937e-07
2	0	0	1	1	291.373	-0.293441	-0.293594	-0.00240919	2	-7.9697e-05	7.07322e-07
2	0	0	1	1	291.439	-0.296775	-0.296944	-0.00244971	2	-7.98624e-05	7.27424e-07
2	0	0	0	1	291.506	-0.300111	-0.300292	-0.00248942	2	-8.00305e-05	7.47552e-07
2	0	0	1	1	291.573	-0.30344	-0.303605	-0.00252906	2	-8.0201e-05	7.67835e-07
2	0	0	0	1	291.639	-0.306771	-0.306966	-0.00257117	2	-8.03742e-05	7.89263e-07
2	0	0	1	1	291.706	-0.310101	-0.310286	-0.00261081	2	-8.05501e-05	8.10099e-07
2	0	0	1	1	291.773	-0.31344	-0.313634	-0.00265128	2	-8.07293e-05	8.31532e-07
2	0	0	0	1	291.839	-0.316772	-0.316972	-0.00269369	2	-8.09106e-05	8.53826e-07
2	0	0	1	1	291.906	-0.3201	-0.320293	-0.00273536	2	-8.10948e-05	8.76118e-07
2	0	0	0	1	291.972	-0.32343	-0.3236	-0.00277772	2	-8.12817e-05	8.9887e-07
2	0	0	1	1	292.039	-0.326761	-0.326933	-0.00282145	2	-8.14716e-05	9.22426e-07
2	0	0	1	1	292.106	-0.3301	-0.330282	-0.00286569	2	-8.1665e-05	9.46484e-07
2	0	0	0	1	292.172	-0.333431	-0.333617	-0.00290888	2	-8.18607e-05	9.70453e-07
2	0	0	1	1	292.239	-0.336761	-0.336941	-0.0029537	2	-8.20593e-05	9.95222e-07
2	0	0	0	1	292.306	-0.340089	-0.340306	-0.00300013	2	-8.2261e-05	1.02096e-06
2	0	0	1	1	292.372	-0.343422	-0.343648	-0.0030459	2	-8.24658e-05	1.04672e-06
2	0	0	1	1	292.439	-0.34676	-0.346973	-0.00309074	2	-8.26741e-05	1.0724e-06
2	0	0	0	1	292.506	-0.35009	-0.350318	-0.00313796	2	-8.2885e-05	1.09929e-06
2	0	0	1	1	292.572	-0.353421	-0.353634	-0.00318534	2	-8.30989e-05	1.12645e-06
2	0	0	0	1	292.639	-0.35675	-0.356958	-0.00323037	2	-8.33159e-05	1.15311e-06
2	0	0	0	1	292.705	-0.360086	-0.360287	-0.00327763	2	-8.35364e-05	1.18089e-06
2	0	0	1	1	292.772	-0.363421	-0.363622	-0.00332518	2	-8.376e-05	1.20911e-06
2	0	0	0	1	292.839	-0.36675	-0.366937	-0.00337146	2	-8.39864e-05	1.23711e-06
2	0	0	1	1	292.905	-0.370081	-0.370275	-0.00342117	2	-8.4216e-05	1.26677e-06
2	0	0	0	1	292.972	-0.37341	-0.37361	-0.00346888	2	-8.44489e-05	1.29601e-06
2	0	0	0	1	293.039	-0.376745	-0.37693	-0.00351698	2	-8.46853e-05	1.32565e-06
2	0	0	1	1	293.105	-0.380081	-0.380298	-0.00356545	2	-8.49249e-05	1.35593e-06
2	0	0	0	1	293.172	-0.38341	-0.383637	-0.00361447	2	-8.51675e-05	1.38665e-06
2	0	0	1	1	293.239	-0.386742	-0.386982	-0.00366499	2	-8.54134e-05	1.41829e-06
2	0	0	0	1	293.305	-0.39007	-0.390299	-0.00371291	2	-8.56625e-05	1.44914e-06
2	0	0	0	1	293.372	-0.393405	-0.393637	-0.00376241	2	-8.59152e-05	1.48102e-06
2	0	0	1	1	293.439	-0.396741	-0.396986	-0.00381289	2	-8.61713e-05	1.51366e-06
2	0	0	0	1	293.505	-0.40007	-0.400309	-0.00386055	2	-8.64302e-05	1.54541e-06
2	0	0	1	1	293.572	-0.403401	-0.403631	-0.00391062	2	-8.66924e-05	1.57845e-06
2	0	0	0	1	293.638	-0.406731	-0.406927	-0.0039591	2	-8.69579e-05	1.61106e-06
2	0	0	0	1	293.705	-0.410065	-0.410262	-0.00400834	2	-8.7227e-05	1.64447e-06
2	0	0	1	1	293.772	-0.413402	-0.413603	-0.00405774	2	-8.74995e-05	1.67829e-06
2	0	0	0	1	293.838	-0.41673	-0.416944	-0.00410788	2	-8.77748e-05	1.71276e-06
2	0	0	1	1	293.905	-0.42006	-0.420277	-0.00415456	2	-8.80534e-05	1.74606e-06
2	0	0	0	1	293.972	-0.423391	-0.423626	-0.00420646	2	-8.83353e-05	1.78197e-06
2	0	0	0	1	294.038	-0.42673	-0.426938	-0.00425434	2	-8.86213e-05	1.81634e-06
2	0	0	1	1	294.105	-0.430062	-0.430268	-0.00430162	2	-8.89096e-05	1.85085e-06
2	0	0	0	1	294.172	-0.433391	-0.433596	-0.00435068	2	-8.92012e-05	1.88644e-06
2	0	0	1	1	294.238	-0.436719	-0.43695	-0.00439878	2	-8.9496e-05	1.92205e-06
2	0	0	0	1	294.305	-0.440051	-0.440268	-0.00444805	2	-8.97941e-05	1.95833e-06
2	0	0	0	1	294.372	-0.44339	-0.443609	-0.00449544	2	-9.00961e-05	1.99422e-06
2	0	0	1	1	294.438	-0.446721	-0.446909	-0.00454176	2	-9.04005e-05	2.02976e-06
2	0	0	0	1	294.505	-0.450051	-0.450242	-0.00458908	2	-9.0708e-05	2.0662e-06
2	0	0	1	1	294.571	-0.45338	-0.453574	-0.00463719	2	-9.10186e-05	2.10331e-06
2	0	0	0	1	294.638	-0.456712	-0.456909	-0.00468423	2	-9.13325e-05	2.14027e-06
2	0	0	0	1	294.705	-0.46005	-0.460256	-0.00472961	2	-9.16504e-05	2.17683e-06
2	0	0	1	1	294.771	-0.46338	-0.463585	-0.00477565	2	-9.19704e-05	2.21392e-06
2	0	0	0	1	294.838	-0.466711	-0.466921	-0.00482234	2	-9.22934e-05	2.25165e-06
2	0	0	1	1	294.905	-0.47004	-0.470283	-0.00486986	2	-9.26197e-05	2.29021e-06
2	0	0	1	1	294.971	-0.473376	-0.473611	-0.00491504	2	-9.29494e-05	2.32782e-06
2	0	0	0	1	295.038	-0.476711	-0.476933	-0.00495979	2	-9.32822e-05	2.36549e-06
2	0	0	1	1	295.105	-0.480039	-0.480269	-0.00500586	2	-9.36175e-05	2.40416e-06
2	0	0	0	1	295.171	-0.483372	-0.483589	-0.00504941	2	-9.39558e-05	2.44184e-06
2	0	0	1	1	295.238	-0.4867	-0.486911	-0.00509413	2	-9.4297e-05	2.48039e-06
2	0	0	1	1	295.304	-0.490036	-0.490248	-0.00513832	2	-9.46417e-05	2.51905e-06
2	0	0	0	1	295.371	-0.493371	-0.493594	-0.00518428	2	-9.49894e-05	2.55893e-06
2	0	0	1	1	295.438	-0.4967	-0.496918	-0.00522916	2	-9.53396e-05	2.59846e-06
2	0	0	0	1	295.504	-0.500031	-0.500255	-0.00527535	2	-9.56929e-05	2.63902e-06
2	0	0	1	1	295.571	-0.503361	-0.503586	-0.00532121	2	-9.60492e-05	2.67969e-06
2	0	0	1	1	295.638	-0.506695	-0.506912	-0.00536708	2	-9.64091e-05	2.72063e-06
2	0	0	0	1	295.704	-0.510031	-0.510265	-0.00541164	2	-9.6772e-05	2.76137e-06
2	0	0	1	1	295.771	-0.51336	-0.513579	-0.00545788	2	-9.71374e-05	2.80306e-06
2	0	0	0	1	295.838	-0.516691	-0.516919	-0.00550341	2	-9.75059e-05	2.84481e-06
2	0	0	1	1	295.904	-0.520021	-0.520237	-0.00555223	2	-9.78775e-05	2.88848e-06
2	0	0	1	1	295.971	-0.52336	-0.52359	-0.00559738	2	-9.82533e-05	2.93073e-06
2	0	0	0	1	296.038	-0.526692	-0.52693	-0.00564586	2	-9.86312e-05	2.97497e-06
2	0	0	1	1	296.104	-0.53002	-0.530235	-0.00569519	2	-9.90124e-05	3.01979e-06
2	0	0	0	1	296.171	-0.53335	-0.533563	-0.00574415	2	-9.93967e-05	3.06487e-06
2	0	0	1	1	296.237	-0.536681	-0.536895	-0.00579406	2	-9.97843e-05	3.1108e-06
2	0	0	1	1	296.304	-0.54002	-0.540227	-0.00584182	2	-0.000100176	3.15591e-06
2	0	0	0	1	296.371	-0.543351	-0.543573	-0.00589489	2	-0.000100571	3.2043e-06
2	0	0	1	1	296.437	-0.546681	-0.546896	-0.00594621	2	-0.000100969	3.25196e-06
2	0	0	0	1	296.504	-0.550009	-0.550227	-0.00600171	2	-0.00010137	3.3023e-06
2	0	0	1	1	296.571	-0.553342	-0.553574	-0.00605642	2	-0.000101775	3.35268e-06
2	0	0	1	1	296.637	-0.55668	-0.556922	-0.0061148	2	-0.000102185	3.40547e-06
2	0	0	0	1	296.704	-0.560011	-0.560225	-0.00616972	2	-0.000102597	3.45643e-06
2	0	0	1	1	296.771	-0.563341	-0.563576	-0.00622765	2	-0.000103014	3.50975e-06
2	0	0	0	1	296.837	-0.56667	-0.566905	-0.00628952	2	-0.000103434	3.56556e-06
2	0	0	0	1	296.904	-0.570006	-0.570251	-0.00635014	2	-0.000103859	3.62117e-06
2	0	0	1	1	296.971	-0.573341	-0.573576	-0.0064121	2	-0.000104288	3.67783e-06
2	0	0	0	1	297.037	-0.57667	-0.576899	-0.00647778	2	-0.000104721	3.73703e-06
2	0	0	1	1	297.104	-0.580001	-0.580225	-0.00654302	2	-0.000105158	3.79642e-06
2	0	0	0	1	297.17	-0.58333	-0.58356	-0.00660928	2	-0.0001056	3.85691e-06
2	0	0	0	1	297.237	-0.586665	-0.586895	-0.00668223	2	-0.000106046	3.92177e-06
2	0	0	1	1	297.304	-0.590001	-0.590232	-0.0067499	2	-0.000106498	3.98401e-06
2	0	0	0	1	297.37	-0.59333	-0.593563	-0.00682044	2	-0.000106953	4.04836e-06
2	0	0	1	1	297.437	-0.596662	-0.596894	-0.00689538	2	-0.000107413	4.11581e-06
2	0	0	0	1	297.484	-0.598991	-0.599217	-0.00694773	2	-0.000107738	4.1632e-06
2	0	0	0	1	297.5	-0.599827	-0.60002	-0.00697011	2	-0.000107856	4.1822e-06