File: TAP_Report/Data/Res_SHU/100 uM RS 10mM SHU_06_CV_C01_2.mpt
EC-Lab ASCII FILE
Nb header lines : 53

Cyclic Voltammetry

Run on channel : 1 (SN 0696)
User :
Electrode connection : standard
Ewe ctrl range : min = -10.00 V, max = 10.00 V
Ewe,I filtering : 50 kHz
Channel : Grounded
Acquisition started on : 05/17/2017 13:04:41
Saved on :
	File : 100 uM RS 10mM SHU_06_CV_C01.mpr
	Directory : \\userfs\st659\w2k\EC-Lab\Data\ITO Characterisation 17-5-17\
	Host : 144.32.136.43
Device : SP-300 (SN 0182)
Address : USB
EC-Lab for windows v10.44 (software)
Internet server v10.44 (firmware)
Command interpretor v10.44 (firmware)
Electrode material :
Initial state :
Electrolyte :
Comments :
Cable : standard
Electrode surface area : 0.001 cm²
Characteristic mass : 0.001 g
Equivalent Weight : 0.000 g/eq.
Density : 0.000 g/cm3
Ei (V)              0.000
vs.                 Eoc
dE/dt               1000.000
dE/dt unit          mV/s
E1 (V)              0.100
vs.                 Ref
Step percent        50
N                   10
E range min (V)     -10.000
E range max (V)     10.000
I Range             Auto
I Range min         Unset
I Range max         Unset
I Range init        Unset
Bandwidth           8
E2 (V)              -0.600
vs.                 Ref
nc cycles           2
Reverse Scan        1
Ef (V)              0.000
vs.                 Eoc

mode	ox/red	error	control changes	counter inc.	time/s	control/V	Ewe/V	<I>/mA	cycle number	(Q-Qo)/C	P/W
2	1	0	1	1	427.859	-0.60016	-0.600378	-0.014739	2	-4.91075e-06	8.849e-06
2	1	0	1	1	427.861	-0.598261	-0.598481	-0.0129115	2	-4.93567e-06	7.7273e-06
2	1	0	1	1	427.864	-0.595062	-0.595304	-0.0112575	2	-4.97398e-06	6.70163e-06
2	1	0	0	1	427.868	-0.591664	-0.591897	-0.0102912	2	-5.01033e-06	6.09131e-06
2	1	0	1	1	427.871	-0.588265	-0.588503	-0.00964064	2	-5.04399e-06	5.67354e-06
2	1	0	1	1	427.874	-0.585066	-0.585304	-0.00915342	2	-5.07387e-06	5.35753e-06
2	1	0	0	1	427.878	-0.581667	-0.581879	-0.00871781	2	-5.10405e-06	5.07271e-06
2	1	0	1	1	427.881	-0.578269	-0.578498	-0.00834364	2	-5.13287e-06	4.82678e-06
2	1	0	1	1	427.884	-0.57507	-0.575306	-0.00801384	2	-5.15887e-06	4.61042e-06
2	1	0	0	1	427.888	-0.571671	-0.57191	-0.00768477	2	-5.18537e-06	4.395e-06
2	1	0	1	1	427.891	-0.568315	-0.568545	-0.00736242	2	-5.21005e-06	4.18587e-06
2	1	0	1	1	427.894	-0.565007	-0.56525	-0.00711252	2	-5.23375e-06	4.02035e-06
2	1	0	0	1	427.898	-0.561608	-0.561847	-0.00684667	2	-5.25731e-06	3.84678e-06
2	1	0	0	1	427.901	-0.55841	-0.558637	-0.00662301	2	-5.2787e-06	3.69986e-06
2	1	0	1	1	427.904	-0.555011	-0.555249	-0.00638181	2	-5.30062e-06	3.54349e-06
2	1	0	0	1	427.908	-0.551612	-0.55183	-0.00615259	2	-5.32177e-06	3.39519e-06
2	1	0	0	1	427.911	-0.548413	-0.548624	-0.00595212	2	-5.34097e-06	3.26548e-06
2	1	0	1	1	427.914	-0.545015	-0.545212	-0.00575239	2	-5.3607e-06	3.13627e-06
2	1	0	0	1	427.918	-0.541616	-0.541825	-0.00555507	2	-5.37976e-06	3.00988e-06
2	1	0	0	1	427.921	-0.538417	-0.538625	-0.00538083	2	-5.3971e-06	2.89825e-06
2	1	0	1	1	427.924	-0.535018	-0.535235	-0.0052052	2	-5.41492e-06	2.78601e-06
2	1	0	0	1	427.928	-0.53162	-0.531841	-0.00503908	2	-5.43218e-06	2.67999e-06
2	1	0	0	1	427.931	-0.528421	-0.52864	-0.00488745	2	-5.4479e-06	2.5837e-06
2	1	0	1	1	427.934	-0.525022	-0.525246	-0.0047186	2	-5.46405e-06	2.47842e-06
2	1	0	0	1	427.938	-0.521624	-0.521851	-0.00455942	2	-5.47967e-06	2.37934e-06
2	1	0	0	1	427.941	-0.518425	-0.518638	-0.00441904	2	-5.49389e-06	2.29188e-06
2	1	0	1	1	427.944	-0.515026	-0.515261	-0.00428637	2	-5.50851e-06	2.2086e-06
2	1	0	0	1	427.948	-0.511627	-0.511853	-0.00414079	2	-5.52269e-06	2.11948e-06
2	1	0	0	1	427.951	-0.508429	-0.508656	-0.0040107	2	-5.53558e-06	2.04007e-06
2	1	0	1	1	427.954	-0.50503	-0.505241	-0.00387414	2	-5.54881e-06	1.95738e-06
2	1	0	0	1	427.958	-0.501631	-0.501853	-0.00374859	2	-5.56162e-06	1.88124e-06
2	1	0	0	1	427.961	-0.498432	-0.498636	-0.00362962	2	-5.57327e-06	1.80986e-06
2	1	0	1	1	427.964	-0.495034	-0.495226	-0.00350734	2	-5.58523e-06	1.73693e-06
2	1	0	0	1	427.968	-0.491635	-0.491835	-0.0033874	2	-5.59681e-06	1.66604e-06
2	1	0	0	1	427.971	-0.488436	-0.488652	-0.00328988	2	-5.60734e-06	1.60761e-06
2	1	0	1	1	427.974	-0.485038	-0.485258	-0.00317012	2	-5.61816e-06	1.53833e-06
2	1	0	0	1	427.978	-0.481639	-0.481875	-0.00306184	2	-5.6286e-06	1.47542e-06
2	1	0	0	1	427.981	-0.47844	-0.478657	-0.00295629	2	-5.63809e-06	1.41505e-06
2	1	0	1	1	427.984	-0.475041	-0.475253	-0.00285325	2	-5.6478e-06	1.35602e-06
2	1	0	0	1	427.988	-0.471643	-0.471864	-0.00275287	2	-5.65718e-06	1.29898e-06
2	1	0	0	1	427.991	-0.468444	-0.468664	-0.00265931	2	-5.66568e-06	1.24632e-06
2	1	0	1	1	427.994	-0.465045	-0.465247	-0.00255224	2	-5.67437e-06	1.18742e-06
2	1	0	0	1	427.998	-0.461647	-0.461863	-0.00246555	2	-5.68276e-06	1.13875e-06
2	1	0	0	1	428.001	-0.458448	-0.458662	-0.00237391	2	-5.69035e-06	1.08882e-06
2	1	0	1	1	428.004	-0.455049	-0.455239	-0.00227314	2	-5.69808e-06	1.03482e-06
2	1	0	0	1	428.008	-0.45165	-0.451833	-0.00219365	2	-5.70553e-06	9.91162e-07
2	1	0	0	1	428.011	-0.448451	-0.44865	-0.00210369	2	-5.71226e-06	9.43819e-07
2	1	0	1	1	428.014	-0.445053	-0.445259	-0.0020261	2	-5.71911e-06	9.02138e-07
2	1	0	0	1	428.018	-0.441654	-0.441863	-0.00193564	2	-5.7257e-06	8.55288e-07
2	1	0	0	1	428.021	-0.438455	-0.438679	-0.00185972	2	-5.73163e-06	8.15819e-07
2	1	0	1	1	428.024	-0.435057	-0.435269	-0.00177033	2	-5.73764e-06	7.7057e-07
2	1	0	0	1	428.028	-0.431658	-0.431849	-0.00168908	2	-5.74337e-06	7.29427e-07
2	1	0	0	1	428.031	-0.428459	-0.428669	-0.00161669	2	-5.74851e-06	6.93025e-07
2	1	0	1	1	428.034	-0.42506	-0.425288	-0.00154306	2	-5.75372e-06	6.56242e-07
2	1	0	0	1	428.038	-0.421662	-0.421886	-0.00146356	2	-5.75869e-06	6.17455e-07
2	1	0	0	1	428.041	-0.418463	-0.418691	-0.00139364	2	-5.76312e-06	5.83502e-07
2	1	0	1	1	428.044	-0.415064	-0.415282	-0.00131682	2	-5.76756e-06	5.46852e-07
2	1	0	0	1	428.048	-0.411666	-0.411876	-0.00123487	2	-5.77175e-06	5.08613e-07
2	1	0	0	1	428.051	-0.408467	-0.408692	-0.00117422	2	-5.77547e-06	4.79892e-07
2	1	0	1	1	428.054	-0.405068	-0.40528	-0.00110587	2	-5.77918e-06	4.48187e-07
2	1	0	0	1	428.073	-0.3866	-0.386788	-0.000768968	2	-5.79842e-06	2.97427e-07
2	1	0	0	1	428.091	-0.368015	-0.368184	-0.000385594	2	-5.81636e-06	1.41969e-07
2	1	0	0	1	428.094	-0.364817	-0.365003	-0.000337115	2	-5.81746e-06	1.23048e-07
2	1	0	1	1	428.098	-0.361418	-0.361613	-0.000276935	2	-5.81843e-06	1.00143e-07
2	1	0	0	1	428.101	-0.358019	-0.358207	-0.000220143	2	-5.81922e-06	7.88568e-08
2	1	0	0	1	428.104	-0.354821	-0.355014	-0.000171363	2	-5.8198e-06	6.08362e-08
2	1	0	1	1	428.108	-0.351422	-0.351636	-0.000111444	2	-5.82021e-06	3.91878e-08
2	1	0	0	1	428.111	-0.348023	-0.348226	-5.20304e-05	2	-5.82042e-06	1.81184e-08
2	1	0	0	1	428.114	-0.344824	-0.345018	-1.19368e-05	2	-5.82048e-06	4.1184e-09
2	1	0	1	1	428.118	-0.341426	-0.341636	4.53817e-05	2	-5.82034e-06	1.5504e-08
2	1	0	0	1	428.121	-0.338027	-0.3382	0.000108334	2	-5.82003e-06	3.66386e-08
2	1	0	0	1	428.124	-0.334828	-0.335006	0.000150121	2	-5.81956e-06	5.02915e-08
2	1	0	1	1	428.128	-0.331429	-0.331601	0.000201023	2	-5.8189e-06	6.66593e-08
2	1	0	0	1	428.131	-0.328031	-0.328192	0.000254274	2	-5.81807e-06	8.34505e-08
2	1	0	0	1	428.134	-0.324832	-0.324985	0.000298881	2	-5.81714e-06	9.7132e-08
2	1	0	1	1	428.138	-0.321433	-0.321591	0.000344204	2	-5.81598e-06	1.10693e-07
2	1	0	0	1	428.141	-0.318035	-0.318226	0.000383567	2	-5.81468e-06	1.22061e-07
2	1	0	0	1	428.144	-0.314836	-0.31501	0.000434003	2	-5.81332e-06	1.36715e-07
2	1	0	1	1	428.148	-0.311437	-0.31163	0.00047541	2	-5.81171e-06	1.48152e-07
2	1	0	0	1	428.151	-0.308038	-0.308217	0.000529268	2	-5.80994e-06	1.63129e-07
2	1	0	0	1	428.154	-0.30484	-0.305015	0.000574907	2	-5.80812e-06	1.75356e-07
2	1	0	1	1	428.158	-0.301441	-0.301639	0.000617728	2	-5.80602e-06	1.86331e-07
2	1	0	0	1	428.161	-0.298042	-0.298219	0.000664261	2	-5.80379e-06	1.98095e-07
2	1	0	0	1	428.164	-0.294843	-0.295006	0.000719337	2	-5.80152e-06	2.12209e-07
2	1	0	1	1	428.168	-0.291445	-0.291592	0.000750721	2	-5.79895e-06	2.18904e-07
2	1	0	0	1	428.171	-0.288046	-0.288205	0.00080279	2	-5.79625e-06	2.31368e-07
2	1	0	0	1	428.174	-0.284847	-0.284991	0.000843639	2	-5.79357e-06	2.40429e-07
2	1	0	1	1	428.178	-0.281448	-0.281586	0.000881137	2	-5.79056e-06	2.48116e-07
2	1	0	0	1	428.181	-0.27805	-0.278188	0.000923476	2	-5.78744e-06	2.569e-07
2	1	0	0	1	428.184	-0.274851	-0.27501	0.000954057	2	-5.78438e-06	2.62375e-07
2	1	0	1	1	428.188	-0.271452	-0.271606	0.00100955	2	-5.78097e-06	2.74199e-07
2	1	0	0	1	428.191	-0.268054	-0.268219	0.0010486	2	-5.77741e-06	2.81256e-07
2	1	0	0	1	428.194	-0.264855	-0.265025	0.00109214	2	-5.77394e-06	2.89445e-07
2	1	0	1	1	428.198	-0.261456	-0.261616	0.00113633	2	-5.77008e-06	2.97283e-07
2	1	0	0	1	428.201	-0.258057	-0.258215	0.00117619	2	-5.7661e-06	3.0371e-07
2	1	0	0	1	428.204	-0.254859	-0.255038	0.00121342	2	-5.76223e-06	3.09468e-07
2	1	0	1	1	428.208	-0.25146	-0.251626	0.00125753	2	-5.75795e-06	3.16429e-07
2	1	0	0	1	428.211	-0.248061	-0.248231	0.00129369	2	-5.75356e-06	3.21133e-07
2	1	0	0	1	428.214	-0.244862	-0.245033	0.0013408	2	-5.74929e-06	3.28539e-07
2	1	0	1	1	428.218	-0.241464	-0.241613	0.00139669	2	-5.74457e-06	3.3746e-07
2	1	0	0	1	428.221	-0.238065	-0.238232	0.00142359	2	-5.73972e-06	3.39144e-07
2	1	0	0	1	428.224	-0.234866	-0.235036	0.00147038	2	-5.73503e-06	3.45591e-07
2	1	0	1	1	428.228	-0.231468	-0.231644	0.00150423	2	-5.72991e-06	3.48447e-07
2	1	0	0	1	428.231	-0.228069	-0.228253	0.00154915	2	-5.72466e-06	3.53598e-07
2	1	0	0	1	428.234	-0.22487	-0.225062	0.0015921	2	-5.71959e-06	3.58322e-07
2	1	0	1	1	428.238	-0.221471	-0.221631	0.00164474	2	-5.71401e-06	3.64524e-07
2	1	0	0	1	428.241	-0.218115	-0.218283	0.0017013	2	-5.70845e-06	3.71365e-07
2	1	0	0	1	428.244	-0.214807	-0.214985	0.00173047	2	-5.70271e-06	3.72025e-07
2	1	0	1	1	428.248	-0.211409	-0.211556	0.00177778	2	-5.69669e-06	3.76099e-07
2	1	0	1	1	428.251	-0.20821	-0.208378	0.0018219	2	-5.69088e-06	3.79645e-07
2	1	0	0	1	428.254	-0.204811	-0.204973	0.00185918	2	-5.68455e-06	3.81082e-07
2	1	0	1	1	428.258	-0.201412	-0.20158	0.00190963	2	-5.67809e-06	3.84942e-07
2	1	0	1	1	428.261	-0.198214	-0.198359	0.00195441	2	-5.67185e-06	3.87675e-07
2	1	0	0	1	428.264	-0.194815	-0.194988	0.00198856	2	-5.66507e-06	3.87744e-07
2	1	0	1	1	428.268	-0.191416	-0.191574	0.00203963	2	-5.65816e-06	3.9074e-07
2	1	0	1	1	428.271	-0.188217	-0.188383	0.00207751	2	-5.65153e-06	3.91368e-07
2	1	0	0	1	428.274	-0.184819	-0.184991	0.00212519	2	-5.64431e-06	3.93141e-07
2	1	0	1	1	428.278	-0.18142	-0.181592	0.00216803	2	-5.63696e-06	3.93697e-07
2	1	0	1	1	428.281	-0.178221	-0.178376	0.00221582	2	-5.62989e-06	3.95249e-07
2	1	0	0	1	428.284	-0.174822	-0.174996	0.00226145	2	-5.62221e-06	3.95743e-07
2	1	0	1	1	428.288	-0.171424	-0.17161	0.00230847	2	-5.61438e-06	3.96156e-07
2	1	0	1	1	428.291	-0.168225	-0.168401	0.00235182	2	-5.60688e-06	3.9605e-07
2	1	0	0	1	428.294	-0.164826	-0.165001	0.00239353	2	-5.59873e-06	3.94934e-07
2	1	0	1	1	428.298	-0.161428	-0.161597	0.00244586	2	-5.59045e-06	3.95244e-07
2	1	0	1	1	428.301	-0.158229	-0.158385	0.00249336	2	-5.5825e-06	3.94911e-07
2	1	0	0	1	428.304	-0.15483	-0.154971	0.0025344	2	-5.57388e-06	3.92758e-07
2	1	0	1	1	428.308	-0.151431	-0.151589	0.00258223	2	-5.56512e-06	3.91438e-07
2	1	0	1	1	428.311	-0.148233	-0.1484	0.00261877	2	-5.55675e-06	3.88624e-07
2	1	0	0	1	428.314	-0.144834	-0.144987	0.00266524	2	-5.5477e-06	3.86425e-07
2	1	0	1	1	428.318	-0.141435	-0.14161	0.00271349	2	-5.53849e-06	3.84257e-07
2	1	0	1	1	428.321	-0.138236	-0.138401	0.0027654	2	-5.52967e-06	3.82735e-07
2	1	0	0	1	428.324	-0.134838	-0.134989	0.00281623	2	-5.52012e-06	3.80159e-07
2	1	0	1	1	428.328	-0.131439	-0.131578	0.00285779	2	-5.51042e-06	3.76021e-07
2	1	0	1	1	428.331	-0.12824	-0.12841	0.00289995	2	-5.50116e-06	3.72382e-07
2	1	0	0	1	428.334	-0.124842	-0.124981	0.00296327	2	-5.49112e-06	3.70352e-07
2	1	0	1	1	428.338	-0.121443	-0.121571	0.00300893	2	-5.4809e-06	3.65798e-07
2	1	0	1	1	428.341	-0.118244	-0.118357	0.00306038	2	-5.47114e-06	3.62217e-07
2	1	0	0	1	428.344	-0.114845	-0.114969	0.00310417	2	-5.46059e-06	3.56882e-07
2	1	0	1	1	428.348	-0.111447	-0.111576	0.00314451	2	-5.44992e-06	3.5085e-07
2	1	0	1	1	428.351	-0.108248	-0.108384	0.00319148	2	-5.43973e-06	3.45904e-07
2	1	0	0	1	428.354	-0.104849	-0.104974	0.00323461	2	-5.42872e-06	3.39551e-07
2	1	0	1	1	428.358	-0.10145	-0.1016	0.00328918	2	-5.41758e-06	3.34182e-07
2	1	0	1	1	428.361	-0.0982517	-0.0984125	0.00333036	2	-5.40694e-06	3.27749e-07
2	1	0	0	1	428.364	-0.094853	-0.0949976	0.00338732	2	-5.39544e-06	3.21788e-07
2	1	0	1	1	428.368	-0.0914543	-0.0915799	0.00343466	2	-5.38379e-06	3.14546e-07
2	1	0	1	1	428.371	-0.0882555	-0.0884002	0.00347034	2	-5.37269e-06	3.06779e-07
2	1	0	0	1	428.374	-0.0848568	-0.0850036	0.00352124	2	-5.36073e-06	2.99318e-07
2	1	0	1	1	428.378	-0.0814581	-0.0816074	0.00356209	2	-5.34863e-06	2.90693e-07
2	1	0	1	1	428.381	-0.0782593	-0.0784061	0.00360725	2	-5.33711e-06	2.82831e-07
2	1	0	0	1	428.384	-0.0748606	-0.0750127	0.00365433	2	-5.32469e-06	2.74121e-07
2	1	0	1	1	428.388	-0.0714619	-0.0716193	0.00370937	2	-5.31211e-06	2.65662e-07
2	1	0	1	1	428.391	-0.0682631	-0.0684185	0.00374453	2	-5.30014e-06	2.56195e-07
2	1	0	0	1	428.394	-0.0648644	-0.065016	0.00379092	2	-5.28725e-06	2.4647e-07
2	1	0	1	1	428.398	-0.0614657	-0.0616265	0.00382088	2	-5.27425e-06	2.35467e-07
2	1	0	1	1	428.401	-0.0582669	-0.0584258	0.00387396	2	-5.26189e-06	2.26339e-07
2	1	0	0	1	428.404	-0.0548682	-0.0550229	0.00392053	2	-5.24857e-06	2.15719e-07
2	1	0	1	1	428.408	-0.0514695	-0.0516447	0.00396601	2	-5.2351e-06	2.04823e-07
2	1	0	1	1	428.411	-0.0482707	-0.0484161	0.0040072	2	-5.2223e-06	1.94013e-07
2	1	0	0	1	428.414	-0.0448498	-0.0450262	0.00405892	2	-5.20851e-06	1.82758e-07
2	1	0	0	1	428.418	-0.0416066	-0.0417605	0.00410975	2	-5.19539e-06	1.71625e-07
2	1	0	1	1	428.421	-0.0382079	-0.0383262	0.00415536	2	-5.18127e-06	1.59259e-07
2	1	0	0	1	428.424	-0.0348092	-0.0349394	0.00418128	2	-5.16704e-06	1.46091e-07
2	1	0	0	1	428.428	-0.0316104	-0.0317536	0.0042194	2	-5.15355e-06	1.33981e-07
2	1	0	1	1	428.431	-0.0282117	-0.0283372	0.00426764	2	-5.13905e-06	1.20933e-07
2	1	0	0	1	428.434	-0.024813	-0.024933	0.00429505	2	-5.12444e-06	1.07088e-07
2	1	0	0	1	428.438	-0.0216142	-0.0217605	0.00433027	2	-5.11059e-06	9.42289e-08
2	1	0	1	1	428.441	-0.0182155	-0.0183667	0.00437352	2	-5.09572e-06	8.03271e-08
2	1	0	0	1	428.444	-0.0148168	-0.0149647	0.0044104	2	-5.08073e-06	6.60005e-08
2	1	0	0	1	428.448	-0.011618	-0.0117674	0.00444946	2	-5.06651e-06	5.23586e-08
2	1	0	1	1	428.451	-0.00821932	-0.00835541	0.00448412	2	-5.05124e-06	3.74667e-08
2	1	0	0	1	428.454	-0.00482061	-0.00497432	0.00452301	2	-5.03587e-06	2.24989e-08
2	1	0	0	1	428.458	-0.00162183	-0.00176861	0.00455922	2	-5.02129e-06	8.06349e-09
2	1	0	1	1	428.461	0.00177687	0.00164644	0.00459501	2	-5.00566e-06	7.56539e-09
2	1	0	0	1	428.464	0.00517558	0.00506683	0.00463707	2	-4.9899e-06	2.34952e-08
2	1	0	0	1	428.468	0.00837436	0.00824557	0.00464263	2	-4.97501e-06	3.82812e-08
2	1	0	1	1	428.471	0.0117731	0.011675	0.00468232	2	-4.95908e-06	5.4666e-08
2	1	0	0	1	428.474	0.0151718	0.0150778	0.00471255	2	-4.94306e-06	7.1055e-08
2	1	0	0	1	428.478	0.0183705	0.018267	0.00473648	2	-4.92789e-06	8.65214e-08
2	1	0	1	1	428.481	0.0217692	0.02168	0.00476474	2	-4.91167e-06	1.033e-07
2	1	0	0	1	428.484	0.0251679	0.0250595	0.00478903	2	-4.89537e-06	1.20011e-07
2	1	0	0	1	428.488	0.0283667	0.0282442	0.00481108	2	-4.87996e-06	1.35885e-07
2	1	0	1	1	428.491	0.0317654	0.0316423	0.00483067	2	-4.8635e-06	1.52853e-07
2	1	0	0	1	428.494	0.0351641	0.0350533	0.00486143	2	-4.84697e-06	1.70409e-07
2	1	0	0	1	428.498	0.0383629	0.0382498	0.00487935	2	-4.83134e-06	1.86635e-07
2	1	0	1	1	428.501	0.0417616	0.0416472	0.00489504	2	-4.81465e-06	2.03865e-07
2	1	0	0	1	428.504	0.0451603	0.0450577	0.00492144	2	-4.79791e-06	2.21749e-07
2	1	0	0	1	428.508	0.0483591	0.0482661	0.00493203	2	-4.7821e-06	2.3805e-07
2	1	0	1	1	428.511	0.0517578	0.0516886	0.00495081	2	-4.76523e-06	2.55901e-07
2	1	0	0	1	428.514	0.0551565	0.0550763	0.00496905	2	-4.74831e-06	2.73677e-07
2	1	0	0	1	428.518	0.0583553	0.058287	0.00498259	2	-4.73234e-06	2.9042e-07
2	1	0	1	1	428.521	0.061754	0.061671	0.00498674	2	-4.71533e-06	3.07537e-07
2	1	0	0	1	428.524	0.0651527	0.0650663	0.00499861	2	-4.6983e-06	3.25241e-07
2	1	0	0	1	428.528	0.0683515	0.0682546	0.00500518	2	-4.68225e-06	3.41627e-07
2	1	0	1	1	428.531	0.0717502	0.0716449	0.00501704	2	-4.66514e-06	3.59445e-07
2	1	0	0	1	428.534	0.0751489	0.075044	0.00502476	2	-4.64802e-06	3.77078e-07
2	1	0	0	1	428.538	0.0783477	0.0782635	0.0050338	2	-4.63188e-06	3.93963e-07
2	1	0	1	1	428.541	0.0817464	0.0816654	0.0050368	2	-4.61468e-06	4.11332e-07
2	1	0	0	1	428.544	0.0851451	0.0850183	0.00504462	2	-4.59749e-06	4.28885e-07
2	1	0	0	1	428.548	0.0883438	0.0882338	0.00504987	2	-4.5813e-06	4.45569e-07
2	1	0	1	1	428.551	0.0917425	0.0916264	0.00505531	2	-4.56406e-06	4.632e-07
2	1	0	0	1	428.554	0.0951412	0.095034	0.00506698	2	-4.5468e-06	4.81535e-07
2	1	0	0	1	428.558	0.0982401	0.0981357	0.00507455	2	-4.53103e-06	4.97995e-07
2	1	0	1	1	428.559	0.0999061	0.0997574	0.00506011	2	-4.52289e-06	5.04783e-07
2	0	0	0	1	428.56	0.100239	0.100234	0.00511118	2	-4.52084e-06	5.12316e-07
2	0	0	1	1	428.561	0.0984733	0.0984043	0.00354982	2	-4.51468e-06	3.49317e-07
2	0	0	0	1	428.565	0.0950746	0.0949078	0.00230975	2	-4.50503e-06	2.19213e-07
2	0	0	1	1	428.568	0.0916759	0.091521	0.00186169	2	-4.49806e-06	1.70383e-07
2	0	0	1	1	428.571	0.0884771	0.0883108	0.00159382	2	-4.4926e-06	1.40751e-07
2	0	0	0	1	428.575	0.0850784	0.0849072	0.00137471	2	-4.48765e-06	1.16723e-07
2	0	0	1	1	428.578	0.0816797	0.0815195	0.00119138	2	-4.48336e-06	9.71211e-08
2	0	0	1	1	428.581	0.0784809	0.0783366	0.00102956	2	-4.47987e-06	8.0652e-08
2	0	0	0	1	428.585	0.0750822	0.0749185	0.000872583	2	-4.47672e-06	6.53726e-08
2	0	0	1	1	428.588	0.0716835	0.0715065	0.000741523	2	-4.47404e-06	5.30237e-08
2	0	0	1	1	428.591	0.0684847	0.0683334	0.000621347	2	-4.47191e-06	4.24587e-08
2	0	0	0	1	428.595	0.065086	0.0649441	0.000502996	2	-4.47008e-06	3.26666e-08
2	0	0	1	1	428.598	0.0616873	0.0615401	0.000386051	2	-4.46863e-06	2.37576e-08
2	0	0	1	1	428.601	0.0584886	0.058368	0.000291492	2	-4.4676e-06	1.70138e-08
2	0	0	0	1	428.605	0.0550899	0.0549549	0.000178044	2	-4.46688e-06	9.7844e-09
2	0	0	1	1	428.608	0.0516912	0.0515385	8.50329e-05	2	-4.4665e-06	4.38247e-09
2	0	0	1	1	428.611	0.0484924	0.0483322	-4.93979e-06	2	-4.46642e-06	2.38751e-10
2	0	0	0	1	428.615	0.0450937	0.044939	-9.90079e-05	2	-4.46668e-06	4.44932e-09
2	0	0	1	1	428.618	0.041695	0.041509	-0.000188598	2	-4.46724e-06	7.8285e-09
2	0	0	1	1	428.621	0.0384962	0.0383234	-0.000263194	2	-4.46801e-06	1.00865e-08
2	0	0	0	1	428.625	0.0350975	0.0349185	-0.000348211	2	-4.46912e-06	1.2159e-08
2	0	0	1	1	428.628	0.0316988	0.0315024	-0.000427775	2	-4.47051e-06	1.3476e-08
2	0	0	1	1	428.631	0.0285	0.0283111	-0.000499144	2	-4.47204e-06	1.41313e-08
2	0	0	0	1	428.635	0.0251013	0.024914	-0.000573364	2	-4.47394e-06	1.42848e-08
2	0	0	1	1	428.638	0.0217026	0.0215387	-0.000642309	2	-4.47606e-06	1.38345e-08
2	0	0	1	1	428.641	0.0185038	0.0183334	-0.000715897	2	-4.47829e-06	1.31248e-08
2	0	0	0	1	428.645	0.0151051	0.0149308	-0.0007857	2	-4.48091e-06	1.17311e-08
2	0	0	1	1	428.648	0.0117064	0.0115201	-0.000862481	2	-4.48377e-06	9.93586e-09
2	0	0	1	1	428.651	0.00850764	0.00831132	-0.000924555	2	-4.48668e-06	7.68428e-09
2	0	0	0	1	428.655	0.00510893	0.00492426	-0.000986109	2	-4.49001e-06	4.85585e-09
2	0	0	1	1	428.658	0.00171023	0.00150069	-0.00106536	2	-4.49355e-06	1.59877e-09
2	0	0	1	1	428.661	-0.00148855	-0.00170947	-0.00112201	2	-4.49711e-06	1.91804e-09
2	0	0	0	1	428.665	-0.00488725	-0.00511333	-0.00118146	2	-4.50109e-06	6.04122e-09
2	0	0	1	1	428.668	-0.00828596	-0.0085149	-0.00124405	2	-4.50527e-06	1.0593e-08
2	0	0	1	1	428.671	-0.0114847	-0.0117065	-0.00130514	2	-4.5094e-06	1.52786e-08
2	0	0	0	1	428.675	-0.0148834	-0.0151173	-0.0013631	2	-4.51401e-06	2.06065e-08
2	0	0	1	1	428.678	-0.0182821	-0.018504	-0.0014231	2	-4.51881e-06	2.63332e-08
2	0	0	1	1	428.681	-0.0214809	-0.0217007	-0.00147144	2	-4.5235e-06	3.19312e-08
2	0	0	0	1	428.685	-0.0248796	-0.0250699	-0.00153589	2	-4.52868e-06	3.85045e-08
2	0	0	1	1	428.688	-0.0282783	-0.0284812	-0.00159446	2	-4.53406e-06	4.54123e-08
2	0	0	1	1	428.691	-0.0314771	-0.0317038	-0.00165429	2	-4.53931e-06	5.24474e-08
2	0	0	0	1	428.695	-0.0348758	-0.0350915	-0.00170619	2	-4.5451e-06	5.98727e-08
2	0	0	1	1	428.698	-0.0382745	-0.0385061	-0.00176005	2	-4.55104e-06	6.77725e-08
2	0	0	1	1	428.701	-0.0414733	-0.041702	-0.0018229	2	-4.55683e-06	7.60188e-08
2	0	0	0	1	428.705	-0.0449164	-0.0451708	-0.0018943	2	-4.56322e-06	8.5567e-08
2	0	0	0	1	428.708	-0.0481374	-0.0483818	-0.00192886	2	-4.56939e-06	9.33219e-08
2	0	0	1	1	428.711	-0.0515361	-0.0517779	-0.00198455	2	-4.57612e-06	1.02756e-07
2	0	0	0	1	428.715	-0.0549348	-0.0551769	-0.00203499	2	-4.58301e-06	1.12284e-07
2	0	0	0	1	428.718	-0.0581336	-0.0583743	-0.00207917	2	-4.58965e-06	1.2137e-07
2	0	0	1	1	428.721	-0.0615323	-0.0617641	-0.00213714	2	-4.59689e-06	1.31998e-07
2	0	0	0	1	428.725	-0.064931	-0.0651529	-0.00218415	2	-4.60429e-06	1.42304e-07
2	0	0	0	1	428.728	-0.0681298	-0.0683452	-0.00223689	2	-4.61141e-06	1.5288e-07
2	0	0	1	1	428.731	-0.0715285	-0.0717485	-0.00229117	2	-4.61918e-06	1.64388e-07
2	0	0	0	1	428.735	-0.0749272	-0.0751717	-0.00234288	2	-4.62712e-06	1.76118e-07
2	0	0	0	1	428.738	-0.078126	-0.0783577	-0.00239175	2	-4.63475e-06	1.87412e-07
2	0	0	1	1	428.741	-0.0815247	-0.0817519	-0.00244317	2	-4.64304e-06	1.99734e-07
2	0	0	0	1	428.745	-0.0849234	-0.0851576	-0.0024923	2	-4.65149e-06	2.12238e-07
2	0	0	0	1	428.748	-0.0881222	-0.0883476	-0.00254759	2	-4.6596e-06	2.25074e-07
2	0	0	1	1	428.751	-0.0915209	-0.0917396	-0.00259113	2	-4.66841e-06	2.37709e-07
2	0	0	0	1	428.755	-0.0949196	-0.0951553	-0.00264503	2	-4.67737e-06	2.51689e-07
2	0	0	0	1	428.758	-0.0981184	-0.0983414	-0.0026941	2	-4.68596e-06	2.64942e-07
2	0	0	1	1	428.761	-0.101517	-0.101739	-0.00273684	2	-4.69527e-06	2.78445e-07
2	0	0	0	1	428.765	-0.104916	-0.105125	-0.00279247	2	-4.70473e-06	2.93557e-07
2	0	0	0	1	428.768	-0.108115	-0.108332	-0.00283654	2	-4.71378e-06	3.07289e-07
2	0	0	1	1	428.771	-0.111513	-0.111721	-0.00288086	2	-4.72358e-06	3.21854e-07
2	0	0	0	1	428.775	-0.114912	-0.115115	-0.00293651	2	-4.73353e-06	3.38037e-07
2	0	0	0	1	428.778	-0.118111	-0.118335	-0.00298815	2	-4.74306e-06	3.53604e-07
2	0	0	1	1	428.781	-0.121509	-0.121725	-0.00303282	2	-4.75337e-06	3.69169e-07
2	0	0	0	1	428.785	-0.124908	-0.125113	-0.00307964	2	-4.76381e-06	3.85304e-07
2	0	0	0	1	428.788	-0.128107	-0.128331	-0.00313306	2	-4.7738e-06	4.0207e-07
2	0	0	1	1	428.791	-0.131506	-0.131716	-0.00317882	2	-4.78461e-06	4.18701e-07
2	0	0	0	1	428.795	-0.134904	-0.13513	-0.0032255	2	-4.79555e-06	4.35864e-07
2	0	0	0	1	428.798	-0.138103	-0.138348	-0.00327404	2	-4.806e-06	4.52956e-07
2	0	0	1	1	428.801	-0.141502	-0.141751	-0.00332165	2	-4.81728e-06	4.70849e-07
2	0	0	0	1	428.805	-0.144901	-0.145133	-0.00337005	2	-4.82871e-06	4.89107e-07
2	0	0	0	1	428.808	-0.148099	-0.148338	-0.00341156	2	-4.83961e-06	5.06062e-07
2	0	0	1	1	428.811	-0.151498	-0.151721	-0.00346308	2	-4.85137e-06	5.25421e-07
2	0	0	0	1	428.815	-0.154897	-0.155123	-0.00351407	2	-4.86329e-06	5.45112e-07
2	0	0	0	1	428.818	-0.158096	-0.15833	-0.00356588	2	-4.87467e-06	5.64586e-07
2	0	0	1	1	428.821	-0.161494	-0.161742	-0.00361765	2	-4.88695e-06	5.85125e-07
2	0	0	0	1	428.825	-0.164893	-0.16514	-0.00366354	2	-4.89938e-06	6.04998e-07
2	0	0	0	1	428.828	-0.168092	-0.16834	-0.00371833	2	-4.91124e-06	6.25943e-07
2	0	0	1	1	428.831	-0.17149	-0.171729	-0.00376543	2	-4.92404e-06	6.46635e-07
2	0	0	0	1	428.835	-0.174889	-0.175144	-0.00381399	2	-4.93699e-06	6.67996e-07
2	0	0	0	1	428.838	-0.178088	-0.178329	-0.00386774	2	-4.94933e-06	6.89733e-07
2	0	0	1	1	428.841	-0.181487	-0.181752	-0.0039221	2	-4.96265e-06	7.12849e-07
2	0	0	0	1	428.845	-0.184885	-0.185144	-0.00397591	2	-4.97613e-06	7.36117e-07
2	0	0	0	1	428.848	-0.188084	-0.188329	-0.00402477	2	-4.98898e-06	7.57982e-07
2	0	0	1	1	428.851	-0.191483	-0.191722	-0.00408425	2	-5.00284e-06	7.83042e-07
2	0	0	0	1	428.855	-0.194882	-0.195114	-0.00413436	2	-5.01686e-06	8.06671e-07
2	0	0	0	1	428.858	-0.19808	-0.198312	-0.00418962	2	-5.03023e-06	8.3085e-07
2	0	0	1	1	428.861	-0.201479	-0.201715	-0.00425186	2	-5.04465e-06	8.57663e-07
2	0	0	0	1	428.865	-0.204878	-0.205116	-0.00430343	2	-5.05925e-06	8.827e-07
2	0	0	0	1	428.868	-0.208076	-0.208304	-0.0043564	2	-5.07316e-06	9.07457e-07
2	0	0	1	1	428.871	-0.211475	-0.211728	-0.00442178	2	-5.08816e-06	9.36216e-07
2	0	0	0	1	428.875	-0.214874	-0.215138	-0.00447818	2	-5.10335e-06	9.63427e-07
2	0	0	0	1	428.878	-0.218095	-0.218338	-0.00452946	2	-5.11782e-06	9.88954e-07
2	0	0	1	1	428.881	-0.221538	-0.221803	-0.00461332	2	-5.13344e-06	1.02325e-06
2	0	0	1	1	428.884	-0.224737	-0.225011	-0.00464103	2	-5.14829e-06	1.04428e-06
2	0	0	0	1	428.888	-0.228135	-0.22839	-0.00469134	2	-5.16423e-06	1.07146e-06
2	0	0	1	1	428.891	-0.231534	-0.231815	-0.00475548	2	-5.18035e-06	1.10239e-06
2	0	0	1	1	428.894	-0.234733	-0.234975	-0.00479487	2	-5.19568e-06	1.12667e-06
2	0	0	0	1	428.898	-0.238132	-0.238377	-0.0048548	2	-5.21216e-06	1.15727e-06
2	0	0	1	1	428.901	-0.24153	-0.241765	-0.00490467	2	-5.2288e-06	1.18578e-06
2	0	0	1	1	428.904	-0.244729	-0.244986	-0.00496315	2	-5.24464e-06	1.2159e-06
2	0	0	0	1	428.908	-0.248128	-0.248391	-0.0050142	2	-5.26168e-06	1.24548e-06
2	0	0	1	1	428.911	-0.251527	-0.251782	-0.00506493	2	-5.27887e-06	1.27526e-06
2	0	0	1	1	428.914	-0.254725	-0.254994	-0.00511374	2	-5.29521e-06	1.30397e-06
2	0	0	0	1	428.918	-0.258124	-0.258363	-0.00516265	2	-5.31275e-06	1.33384e-06
2	0	0	1	1	428.921	-0.261523	-0.261749	-0.00520357	2	-5.33042e-06	1.36203e-06
2	0	0	1	1	428.924	-0.264722	-0.264964	-0.00526743	2	-5.34723e-06	1.39568e-06
2	0	0	0	1	428.928	-0.26812	-0.268374	-0.00531408	2	-5.36529e-06	1.42616e-06
2	0	0	1	1	428.931	-0.271519	-0.271767	-0.00535586	2	-5.38349e-06	1.45555e-06
2	0	0	1	1	428.934	-0.274718	-0.274953	-0.00540331	2	-5.40075e-06	1.48566e-06
2	0	0	0	1	428.938	-0.278116	-0.278343	-0.00544969	2	-5.41928e-06	1.51688e-06
2	0	0	1	1	428.941	-0.281515	-0.281736	-0.00549532	2	-5.43794e-06	1.54823e-06
2	0	0	1	1	428.944	-0.284714	-0.284929	-0.00554687	2	-5.45565e-06	1.58046e-06
2	0	0	0	1	428.948	-0.288113	-0.288341	-0.00560246	2	-5.47468e-06	1.61542e-06
2	0	0	1	1	428.951	-0.291511	-0.291746	-0.0056402	2	-5.49385e-06	1.64551e-06
2	0	0	1	1	428.954	-0.29471	-0.294944	-0.00568692	2	-5.51202e-06	1.67732e-06
2	0	0	0	1	428.958	-0.298109	-0.298369	-0.00574828	2	-5.53153e-06	1.71511e-06
2	0	0	1	1	428.961	-0.301507	-0.301767	-0.00578899	2	-5.55121e-06	1.74693e-06
2	0	0	1	1	428.964	-0.304706	-0.304963	-0.0058177	2	-5.56983e-06	1.77418e-06
2	0	0	0	1	428.968	-0.308105	-0.308358	-0.00588072	2	-5.58979e-06	1.81336e-06
2	0	0	1	1	428.971	-0.311504	-0.311776	-0.00592415	2	-5.60991e-06	1.84701e-06
2	0	0	1	1	428.974	-0.314702	-0.314949	-0.00596782	2	-5.62899e-06	1.87956e-06
2	0	0	0	1	428.978	-0.318101	-0.318352	-0.00601382	2	-5.64943e-06	1.91451e-06
2	0	0	1	1	428.981	-0.3215	-0.321745	-0.00606418	2	-5.67002e-06	1.95112e-06
2	0	0	1	1	428.984	-0.324699	-0.324927	-0.00610466	2	-5.68954e-06	1.98357e-06
2	0	0	0	1	428.988	-0.328097	-0.328335	-0.00616788	2	-5.71048e-06	2.02513e-06
2	0	0	1	1	428.991	-0.331496	-0.331758	-0.00621468	2	-5.73159e-06	2.06177e-06
2	0	0	1	1	428.994	-0.334695	-0.334949	-0.00626134	2	-5.7516e-06	2.09723e-06
2	0	0	0	1	428.998	-0.338094	-0.338359	-0.00630799	2	-5.77304e-06	2.13437e-06
2	0	0	1	1	429.001	-0.341492	-0.341778	-0.00637373	2	-5.79466e-06	2.1784e-06
2	0	0	1	1	429.004	-0.344691	-0.34498	-0.006418	2	-5.81518e-06	2.21408e-06
2	0	0	0	1	429.008	-0.34809	-0.348365	-0.00646838	2	-5.83715e-06	2.25336e-06
2	0	0	1	1	429.011	-0.351488	-0.351765	-0.00652767	2	-5.8593e-06	2.29621e-06
2	0	0	1	1	429.014	-0.354687	-0.354953	-0.00657548	2	-5.88032e-06	2.33398e-06
2	0	0	0	1	429.018	-0.358086	-0.358375	-0.00662631	2	-5.90283e-06	2.3747e-06
2	0	0	1	1	429.021	-0.361485	-0.361777	-0.00667554	2	-5.9255e-06	2.41506e-06
2	0	0	1	1	429.024	-0.364683	-0.364957	-0.00673304	2	-5.947e-06	2.45727e-06
2	0	0	0	1	429.028	-0.368082	-0.368335	-0.00678752	2	-5.97006e-06	2.50008e-06
2	0	0	1	1	429.031	-0.371481	-0.371747	-0.00686054	2	-5.99332e-06	2.55039e-06
2	0	0	1	1	429.034	-0.37468	-0.374936	-0.0069065	2	-6.01539e-06	2.58949e-06
2	0	0	0	1	429.038	-0.378078	-0.378344	-0.0069741	2	-6.03906e-06	2.63861e-06
2	0	0	1	1	429.041	-0.381477	-0.38174	-0.00704545	2	-6.06296e-06	2.68953e-06
2	0	0	1	1	429.044	-0.384676	-0.384967	-0.00710221	2	-6.08565e-06	2.73411e-06
2	0	0	0	1	429.048	-0.388075	-0.388355	-0.00716556	2	-6.10998e-06	2.78278e-06
2	0	0	1	1	429.051	-0.391473	-0.391762	-0.0072335	2	-6.13452e-06	2.83381e-06
2	0	0	1	1	429.054	-0.394716	-0.39499	-0.00730666	2	-6.15784e-06	2.88606e-06
2	0	0	0	1	429.058	-0.398137	-0.398437	-0.00737161	2	-6.18286e-06	2.93712e-06
2	0	0	0	1	429.061	-0.401336	-0.401625	-0.00743098	2	-6.20659e-06	2.98447e-06
2	0	0	1	1	429.064	-0.404735	-0.405017	-0.0074972	2	-6.23204e-06	3.03649e-06
2	0	0	0	1	429.068	-0.408134	-0.408402	-0.0075618	2	-6.25769e-06	3.08825e-06
2	0	0	0	1	429.071	-0.411332	-0.411604	-0.0076303	2	-6.28205e-06	3.14066e-06
2	0	0	1	1	429.074	-0.414731	-0.415016	-0.00770885	2	-6.30821e-06	3.19929e-06
2	0	0	0	1	429.078	-0.41813	-0.418413	-0.00778609	2	-6.33461e-06	3.2578e-06
2	0	0	0	1	429.081	-0.421328	-0.421598	-0.00784513	2	-6.35967e-06	3.30749e-06
2	0	0	1	1	429.084	-0.424727	-0.425003	-0.00792916	2	-6.38655e-06	3.36991e-06
2	0	0	0	1	429.088	-0.428126	-0.428395	-0.00800494	2	-6.4137e-06	3.42927e-06
2	0	0	0	1	429.091	-0.431325	-0.431584	-0.00807429	2	-6.43948e-06	3.48473e-06
2	0	0	1	1	429.094	-0.434723	-0.434995	-0.00816207	2	-6.46716e-06	3.55046e-06
2	0	0	0	1	429.098	-0.438122	-0.438382	-0.00824253	2	-6.4951e-06	3.61338e-06
2	0	0	0	1	429.101	-0.441321	-0.441593	-0.00831141	2	-6.52164e-06	3.67026e-06
2	0	0	1	1	429.104	-0.44472	-0.444988	-0.00839403	2	-6.55011e-06	3.73524e-06
2	0	0	0	1	429.108	-0.448118	-0.448374	-0.00846496	2	-6.57883e-06	3.79547e-06
2	0	0	0	1	429.111	-0.451317	-0.451578	-0.00855933	2	-6.60613e-06	3.8652e-06
2	0	0	1	1	429.114	-0.454716	-0.45495	-0.00863786	2	-6.63544e-06	3.9298e-06
2	0	0	0	1	429.118	-0.458114	-0.458393	-0.00873532	2	-6.66504e-06	4.00421e-06
2	0	0	0	1	429.121	-0.461313	-0.461571	-0.00882186	2	-6.69318e-06	4.07192e-06
2	0	0	1	1	429.124	-0.464712	-0.464956	-0.00890378	2	-6.72339e-06	4.13987e-06
2	0	0	0	1	429.128	-0.468111	-0.468393	-0.00901118	2	-6.75391e-06	4.22077e-06
2	0	0	0	1	429.131	-0.471309	-0.471597	-0.00908579	2	-6.78292e-06	4.28483e-06
2	0	0	1	1	429.134	-0.474708	-0.47498	-0.0091734	2	-6.81404e-06	4.35718e-06
2	0	0	0	1	429.138	-0.478107	-0.478387	-0.00927201	2	-6.84546e-06	4.43562e-06
2	0	0	0	1	429.141	-0.481306	-0.481607	-0.00936065	2	-6.87532e-06	4.50815e-06
2	0	0	1	1	429.144	-0.484704	-0.484979	-0.00944552	2	-6.90737e-06	4.58088e-06
2	0	0	0	1	429.148	-0.488103	-0.488381	-0.00955206	2	-6.93973e-06	4.66504e-06
2	0	0	0	1	429.151	-0.491302	-0.491575	-0.00963863	2	-6.97049e-06	4.73811e-06
2	0	0	1	1	429.154	-0.494701	-0.494977	-0.00973276	2	-7.00351e-06	4.81749e-06
2	0	0	0	1	429.158	-0.498099	-0.498379	-0.0098355	2	-7.03683e-06	4.9018e-06
2	0	0	0	1	429.161	-0.501298	-0.501584	-0.00992532	2	-7.0685e-06	4.97838e-06
2	0	0	1	1	429.164	-0.504697	-0.504966	-0.0100396	2	-7.10253e-06	5.06964e-06
2	0	0	0	1	429.168	-0.508095	-0.508379	-0.0101373	2	-7.1369e-06	5.1536e-06
2	0	0	0	1	429.171	-0.511294	-0.511586	-0.0102352	2	-7.16955e-06	5.23618e-06
2	0	0	1	1	429.204	-0.544681	-0.5449	-0.0113263	2	-7.51507e-06	6.1717e-06
2	0	0	0	1	429.208	-0.54808	-0.548311	-0.0114406	2	-7.55391e-06	6.27301e-06
2	0	0	0	1	429.211	-0.551279	-0.551488	-0.0115534	2	-7.59085e-06	6.37159e-06
2	0	0	1	1	429.214	-0.554678	-0.554926	-0.0116862	2	-7.63052e-06	6.485e-06
2	0	0	0	1	429.218	-0.558076	-0.558318	-0.0118025	2	-7.6706e-06	6.58955e-06
2	0	0	0	1	429.221	-0.561275	-0.561497	-0.0119203	2	-7.7087e-06	6.69321e-06
2	0	0	1	1	429.224	-0.564674	-0.564925	-0.012064	2	-7.74964e-06	6.81528e-06
2	0	0	0	1	429.228	-0.567982	-0.568218	-0.0121903	2	-7.78979e-06	6.92674e-06
2	0	0	0	1	429.231	-0.571338	-0.571585	-0.0123582	2	-7.83049e-06	7.06375e-06
2	0	0	1	1	429.234	-0.574737	-0.574972	-0.0124637	2	-7.87284e-06	7.16628e-06
2	0	0	1	1	429.238	-0.577936	-0.57816	-0.0126026	2	-7.91309e-06	7.28633e-06
2	0	0	0	1	429.241	-0.581334	-0.581549	-0.0127278	2	-7.95633e-06	7.40181e-06
2	0	0	1	1	429.244	-0.584733	-0.584964	-0.0128986	2	-8.00004e-06	7.5452e-06
2	0	0	1	1	429.248	-0.587932	-0.588165	-0.0130268	2	-8.04166e-06	7.6619e-06
2	0	0	0	1	429.251	-0.59133	-0.591559	-0.013176	2	-8.08638e-06	7.79435e-06
2	0	0	1	1	429.254	-0.594729	-0.594971	-0.0133364	2	-8.13159e-06	7.93479e-06
2	0	0	1	1	429.258	-0.597928	-0.598139	-0.0134883	2	-8.17467e-06	8.06785e-06
2	0	0	0	1	429.26	-0.599827	-0.600077	-0.0135807	2	-8.20044e-06	8.14948e-06