File: TAP_Report/Data/Res_SHU/100 uM RS 10mM SHU_07_CV_C01_2.mpt
EC-Lab ASCII FILE
Nb header lines : 53

Cyclic Voltammetry

Run on channel : 1 (SN 0696)
User :
Electrode connection : standard
Ewe ctrl range : min = -10.00 V, max = 10.00 V
Ewe,I filtering : 50 kHz
Channel : Grounded
Acquisition started on : 05/17/2017 13:04:41
Saved on :
	File : 100 uM RS 10mM SHU_07_CV_C01.mpr
	Directory : \\userfs\st659\w2k\EC-Lab\Data\ITO Characterisation 17-5-17\
	Host : 144.32.136.43
Device : SP-300 (SN 0182)
Address : USB
EC-Lab for windows v10.44 (software)
Internet server v10.44 (firmware)
Command interpretor v10.44 (firmware)
Electrode material :
Initial state :
Electrolyte :
Comments :
Cable : standard
Electrode surface area : 0.001 cm²
Characteristic mass : 0.001 g
Equivalent Weight : 0.000 g/eq.
Density : 0.000 g/cm3
Ei (V)              0.000
vs.                 Eoc
dE/dt               2500.000
dE/dt unit          mV/s
E1 (V)              0.100
vs.                 Ref
Step percent        50
N                   10
E range min (V)     -10.000
E range max (V)     10.000
I Range             Auto
I Range min         Unset
I Range max         Unset
I Range init        Unset
Bandwidth           8
E2 (V)              -0.600
vs.                 Ref
nc cycles           2
Reverse Scan        1
Ef (V)              0.000
vs.                 Eoc

mode	ox/red	error	control changes	counter inc.	time/s	control/V	Ewe/V	<I>/mA	cycle number	(Q-Qo)/C	P/W
2	1	0	0	1	432.272	-0.599827	-0.600146	-0.0205397	2	-3.38052e-06	1.23268e-05
2	1	0	1	1	432.273	-0.596995	-0.59728	-0.0176423	2	-3.40017e-06	1.05374e-05
2	1	0	1	1	432.275	-0.591997	-0.592272	-0.0141393	2	-3.43154e-06	8.37431e-06
2	1	0	1	1	432.277	-0.586999	-0.58728	-0.0119186	2	-3.45734e-06	6.99956e-06
2	1	0	1	1	432.279	-0.582	-0.582264	-0.0103776	2	-3.47947e-06	6.04251e-06
2	1	0	1	1	432.281	-0.577002	-0.577278	-0.00920396	2	-3.49892e-06	5.31324e-06
2	1	0	1	1	432.283	-0.572004	-0.572277	-0.00825624	2	-3.51628e-06	4.72486e-06
2	1	0	1	1	432.285	-0.567006	-0.567299	-0.0074513	2	-3.5319e-06	4.22711e-06
2	1	0	1	1	432.287	-0.562008	-0.56227	-0.00673568	2	-3.54602e-06	3.78727e-06
2	1	0	1	1	432.289	-0.55701	-0.55729	-0.00612614	2	-3.55881e-06	3.41404e-06
2	1	0	1	1	432.291	-0.552012	-0.552278	-0.00555504	2	-3.57044e-06	3.06793e-06
2	1	0	1	1	432.293	-0.547014	-0.547257	-0.00505437	2	-3.581e-06	2.76604e-06
2	1	0	1	1	432.295	-0.542016	-0.54226	-0.00459408	2	-3.5906e-06	2.49119e-06
2	1	0	1	1	432.297	-0.537018	-0.537264	-0.00416725	2	-3.59931e-06	2.23892e-06
2	1	0	1	1	432.299	-0.53202	-0.532271	-0.00378715	2	-3.60723e-06	2.01579e-06
2	1	0	1	1	432.301	-0.527022	-0.527281	-0.00341607	2	-3.61439e-06	1.80123e-06
2	1	0	1	1	432.303	-0.522023	-0.5223	-0.00307385	2	-3.62085e-06	1.60547e-06
2	1	0	1	1	432.305	-0.517025	-0.517294	-0.00274658	2	-3.62663e-06	1.42079e-06
2	1	0	1	1	432.307	-0.512027	-0.512288	-0.00244106	2	-3.63179e-06	1.25053e-06
2	1	0	1	1	432.309	-0.507029	-0.507297	-0.00215253	2	-3.63636e-06	1.09197e-06
2	1	0	1	1	432.311	-0.502031	-0.502307	-0.00188114	2	-3.64036e-06	9.44912e-07
2	1	0	1	1	432.313	-0.497033	-0.497296	-0.0016127	2	-3.64383e-06	8.0199e-07
2	1	0	1	1	432.315	-0.492035	-0.492299	-0.00136956	2	-3.64678e-06	6.74233e-07
2	1	0	1	1	432.317	-0.487037	-0.48731	-0.00113998	2	-3.64927e-06	5.55523e-07
2	1	0	1	1	432.319	-0.482039	-0.482312	-0.000919361	2	-3.65131e-06	4.43419e-07
2	1	0	1	1	432.321	-0.477041	-0.477299	-0.000693784	2	-3.6529e-06	3.31142e-07
2	1	0	1	1	432.323	-0.472042	-0.472317	-0.000487489	2	-3.65406e-06	2.3025e-07
2	1	0	1	1	432.325	-0.467044	-0.467303	-0.000283228	2	-3.65481e-06	1.32353e-07
2	1	0	1	1	432.327	-0.462046	-0.462299	-8.63624e-05	2	-3.65516e-06	3.99252e-08
2	1	0	1	1	432.329	-0.457048	-0.457297	9.11579e-05	2	-3.65513e-06	4.16862e-08
2	1	0	1	1	432.331	-0.45205	-0.452316	0.000272895	2	-3.65475e-06	1.23435e-07
2	1	0	1	1	432.333	-0.447052	-0.447301	0.000442173	2	-3.65402e-06	1.97784e-07
2	1	0	1	1	432.335	-0.442054	-0.442314	0.000599521	2	-3.65296e-06	2.65177e-07
2	1	0	1	1	432.337	-0.437056	-0.437312	0.000761955	2	-3.65158e-06	3.33212e-07
2	1	0	1	1	432.339	-0.432058	-0.43231	0.000920194	2	-3.64989e-06	3.97809e-07
2	1	0	1	1	432.341	-0.42706	-0.427326	0.00106534	2	-3.64789e-06	4.55247e-07
2	1	0	1	1	432.343	-0.422062	-0.422334	0.00120484	2	-3.64561e-06	5.08847e-07
2	1	0	1	1	432.345	-0.417063	-0.417335	0.00134586	2	-3.64304e-06	5.61673e-07
2	1	0	1	1	432.347	-0.412065	-0.412324	0.00150098	2	-3.64018e-06	6.1889e-07
2	1	0	1	1	432.349	-0.407067	-0.407332	0.00163127	2	-3.63703e-06	6.64469e-07
2	1	0	1	1	432.351	-0.402069	-0.402343	0.00175376	2	-3.63363e-06	7.05615e-07
2	1	0	1	1	432.353	-0.397053	-0.397333	0.0018927	2	-3.62996e-06	7.52032e-07
2	1	0	1	1	432.355	-0.391906	-0.392178	0.00208581	2	-3.62596e-06	8.18011e-07
2	1	0	1	1	432.357	-0.386908	-0.387177	0.00216343	2	-3.6217e-06	8.37631e-07
2	1	0	1	1	432.359	-0.38191	-0.382166	0.00226935	2	-3.61726e-06	8.67269e-07
2	1	0	1	1	432.361	-0.376912	-0.377154	0.00237572	2	-3.6126e-06	8.96012e-07
2	1	0	1	1	432.363	-0.371914	-0.372151	0.0024859	2	-3.60773e-06	9.2513e-07
2	1	0	1	1	432.365	-0.366916	-0.367145	0.00259108	2	-3.60264e-06	9.51304e-07
2	1	0	1	1	432.367	-0.361918	-0.362173	0.00268885	2	-3.59735e-06	9.73828e-07
2	1	0	1	1	432.369	-0.35692	-0.357186	0.00277964	2	-3.59188e-06	9.92851e-07
2	1	0	1	1	432.371	-0.351922	-0.35219	0.00287989	2	-3.5862e-06	1.01427e-06
2	1	0	1	1	432.373	-0.346924	-0.347179	0.00297931	2	-3.58034e-06	1.03435e-06
2	1	0	1	1	432.375	-0.341925	-0.342185	0.00307506	2	-3.57428e-06	1.05224e-06
2	1	0	1	1	432.377	-0.336927	-0.337152	0.0031781	2	-3.56802e-06	1.0715e-06
2	1	0	1	1	432.379	-0.331929	-0.332158	0.00325527	2	-3.56157e-06	1.08126e-06
2	1	0	1	1	432.381	-0.326931	-0.327158	0.00335999	2	-3.55495e-06	1.09925e-06
2	1	0	1	1	432.383	-0.321933	-0.322158	0.00343851	2	-3.54814e-06	1.10774e-06
2	1	0	1	1	432.385	-0.316935	-0.317172	0.00351219	2	-3.54118e-06	1.11397e-06
2	1	0	1	1	432.387	-0.311937	-0.312165	0.00359323	2	-3.53406e-06	1.12168e-06
2	1	0	1	1	432.389	-0.306939	-0.307184	0.00368615	2	-3.52678e-06	1.13232e-06
2	1	0	1	1	432.391	-0.301941	-0.302173	0.00376149	2	-3.51932e-06	1.13662e-06
2	1	0	1	1	432.393	-0.296943	-0.297159	0.00385837	2	-3.51169e-06	1.14655e-06
2	1	0	1	1	432.395	-0.291944	-0.292141	0.00392829	2	-3.5039e-06	1.14761e-06
2	1	0	1	1	432.397	-0.286946	-0.287154	0.00400792	2	-3.49595e-06	1.15089e-06
2	1	0	1	1	432.399	-0.281948	-0.282147	0.00407579	2	-3.48786e-06	1.14997e-06
2	1	0	1	1	432.401	-0.27695	-0.277174	0.00414525	2	-3.47963e-06	1.14896e-06
2	1	0	1	1	432.403	-0.271952	-0.272183	0.00424125	2	-3.47124e-06	1.1544e-06
2	1	0	1	1	432.405	-0.266954	-0.267172	0.00429899	2	-3.46269e-06	1.14857e-06
2	1	0	1	1	432.407	-0.261956	-0.262172	0.00438625	2	-3.454e-06	1.14995e-06
2	1	0	1	1	432.409	-0.256958	-0.257171	0.00445666	2	-3.44515e-06	1.14612e-06
2	1	0	1	1	432.411	-0.25196	-0.252196	0.00452247	2	-3.43617e-06	1.14055e-06
2	1	0	1	1	432.413	-0.246962	-0.247198	0.00458966	2	-3.42705e-06	1.13455e-06
2	1	0	1	1	432.415	-0.241964	-0.242189	0.004671	2	-3.41778e-06	1.13126e-06
2	1	0	1	1	432.417	-0.236965	-0.237187	0.00474625	2	-3.40836e-06	1.12575e-06
2	1	0	1	1	432.419	-0.231967	-0.232214	0.00481405	2	-3.39879e-06	1.11789e-06
2	1	0	1	1	432.421	-0.226969	-0.227214	0.00489493	2	-3.38907e-06	1.1122e-06
2	1	0	1	1	432.423	-0.221971	-0.2222	0.00498009	2	-3.37919e-06	1.10657e-06
2	1	0	1	1	432.425	-0.216973	-0.21721	0.00506111	2	-3.36914e-06	1.09932e-06
2	1	0	1	1	432.427	-0.211975	-0.212208	0.00515659	2	-3.35891e-06	1.09427e-06
2	1	0	1	1	432.429	-0.206977	-0.20719	0.00524518	2	-3.3485e-06	1.08675e-06
2	1	0	1	1	432.431	-0.201979	-0.202188	0.00529906	2	-3.33795e-06	1.07141e-06
2	1	0	1	1	432.433	-0.196981	-0.197178	0.00538632	2	-3.32725e-06	1.06207e-06
2	1	0	1	1	432.435	-0.191983	-0.192196	0.00547057	2	-3.31639e-06	1.05142e-06
2	1	0	1	1	432.437	-0.186984	-0.187217	0.00555956	2	-3.30535e-06	1.04085e-06
2	1	0	1	1	432.439	-0.181986	-0.182205	0.00564737	2	-3.29413e-06	1.02898e-06
2	1	0	1	1	432.441	-0.176988	-0.177205	0.00572716	2	-3.28275e-06	1.01488e-06
2	1	0	1	1	432.443	-0.17199	-0.172212	0.00581914	2	-3.2712e-06	1.00213e-06
2	1	0	1	1	432.445	-0.166992	-0.167225	0.0059143	2	-3.25946e-06	9.8902e-07
2	1	0	1	1	432.447	-0.161994	-0.162217	0.0059965	2	-3.24753e-06	9.72733e-07
2	1	0	1	1	432.449	-0.156996	-0.157186	0.00610034	2	-3.23543e-06	9.5889e-07
2	1	0	1	1	432.451	-0.151998	-0.152196	0.00617849	2	-3.22314e-06	9.40341e-07
2	1	0	1	1	432.453	-0.147	-0.147201	0.00625669	2	-3.2107e-06	9.2099e-07
2	1	0	1	1	432.455	-0.142002	-0.142215	0.00635249	2	-3.19807e-06	9.03418e-07
2	1	0	1	1	432.457	-0.137004	-0.137219	0.0064503	2	-3.18526e-06	8.85105e-07
2	1	0	1	1	432.459	-0.132005	-0.132211	0.00652215	2	-3.17228e-06	8.62299e-07
2	1	0	1	1	432.461	-0.127007	-0.127224	0.00659942	2	-3.15915e-06	8.39606e-07
2	1	0	1	1	432.463	-0.122009	-0.122184	0.00670395	2	-3.14584e-06	8.19115e-07
2	1	0	1	1	432.465	-0.117011	-0.117207	0.0068064	2	-3.13231e-06	7.97757e-07
2	1	0	1	1	432.467	-0.112013	-0.112187	0.0069106	2	-3.11859e-06	7.75279e-07
2	1	0	1	1	432.469	-0.107015	-0.107202	0.00698667	2	-3.10468e-06	7.48984e-07
2	1	0	1	1	432.471	-0.102017	-0.10221	0.00707185	2	-3.09062e-06	7.22811e-07
2	1	0	1	1	432.473	-0.0970188	-0.0972208	0.00715955	2	-3.07638e-06	6.96057e-07
2	1	0	1	1	432.475	-0.0920207	-0.0922124	0.00727304	2	-3.06193e-06	6.70664e-07
2	1	0	1	1	432.477	-0.0870226	-0.0872193	0.00735996	2	-3.04729e-06	6.4193e-07
2	1	0	1	1	432.479	-0.0820245	-0.0822516	0.00743908	2	-3.03248e-06	6.11876e-07
2	1	0	1	1	432.481	-0.0770264	-0.0772343	0.00753985	2	-3.01749e-06	5.82335e-07
2	1	0	1	1	432.483	-0.0720283	-0.0722362	0.00762719	2	-3.00231e-06	5.50959e-07
2	1	0	1	1	432.485	-0.0670302	-0.0672539	0.00771538	2	-2.98696e-06	5.18889e-07
2	1	0	1	1	432.487	-0.0620321	-0.0622436	0.00779191	2	-2.97145e-06	4.84997e-07
2	1	0	1	1	432.489	-0.057034	-0.0572505	0.00788165	2	-2.95577e-06	4.51228e-07
2	1	0	1	1	432.491	-0.0520359	-0.0522495	0.00794706	2	-2.93994e-06	4.1523e-07
2	1	0	1	1	432.493	-0.0470379	-0.0472634	0.00803442	2	-2.92395e-06	3.79734e-07
2	1	0	1	1	432.495	-0.0420398	-0.0422457	0.00810949	2	-2.90779e-06	3.42591e-07
2	1	0	1	1	432.497	-0.0370417	-0.0372244	0.0081913	2	-2.89149e-06	3.04917e-07
2	1	0	1	1	432.499	-0.0320436	-0.0322313	0.00824872	2	-2.87504e-06	2.65867e-07
2	1	0	1	1	432.501	-0.0270455	-0.0272281	0.00832034	2	-2.85847e-06	2.26547e-07
2	1	0	1	1	432.503	-0.0220474	-0.02224	0.00838762	2	-2.84175e-06	1.86541e-07
2	1	0	1	1	432.505	-0.0170493	-0.0172601	0.00845563	2	-2.8249e-06	1.45945e-07
2	1	0	1	1	432.507	-0.0120512	-0.0122574	0.00850687	2	-2.80793e-06	1.04272e-07
2	1	0	1	1	432.509	-0.00705309	-0.00726158	0.00857122	2	-2.79085e-06	6.22406e-08
2	1	0	1	1	432.511	-0.002055	-0.00226996	0.00864957	2	-2.77363e-06	1.96342e-08
2	1	0	1	1	432.513	0.0029431	0.00274773	0.00871034	2	-2.75626e-06	2.39337e-08
2	1	0	1	1	432.515	0.00794119	0.00775864	0.00874976	2	-2.73879e-06	6.78862e-08
2	1	0	1	1	432.517	0.0129393	0.0127782	0.00879754	2	-2.72124e-06	1.12417e-07
2	1	0	1	1	432.519	0.0179374	0.0177777	0.00884867	2	-2.70359e-06	1.57309e-07
2	1	0	1	1	432.521	0.0229355	0.0227617	0.00888594	2	-2.68585e-06	2.02259e-07
2	1	0	1	1	432.523	0.0279336	0.0277616	0.00895662	2	-2.668e-06	2.4865e-07
2	1	0	1	1	432.525	0.0329316	0.0327519	0.00900165	2	-2.65004e-06	2.94821e-07
2	1	0	1	1	432.527	0.0379297	0.0377791	0.00904373	2	-2.63198e-06	3.41664e-07
2	1	0	1	1	432.529	0.0430389	0.0428702	0.00914128	2	-2.61381e-06	3.91888e-07
2	1	0	1	1	432.531	0.0480925	0.0479322	0.00918589	2	-2.59546e-06	4.40299e-07
2	1	0	1	1	432.533	0.0530906	0.0529263	0.00918464	2	-2.57709e-06	4.86109e-07
2	1	0	1	1	432.535	0.0580887	0.0579495	0.00920712	2	-2.5587e-06	5.33548e-07
2	1	0	1	1	432.537	0.0630868	0.062946	0.00922254	2	-2.54027e-06	5.80523e-07
2	1	0	1	1	432.539	0.0680849	0.0679266	0.00924735	2	-2.5218e-06	6.28142e-07
2	1	0	1	1	432.541	0.073083	0.0729301	0.00927346	2	-2.50328e-06	6.76314e-07
2	1	0	1	1	432.543	0.0780811	0.0779247	0.0093074	2	-2.4847e-06	7.25277e-07
2	1	0	1	1	432.545	0.0830792	0.0829131	0.00931399	2	-2.46607e-06	7.72253e-07
2	1	0	1	1	432.547	0.0880773	0.0879141	0.00933141	2	-2.44742e-06	8.20362e-07
2	1	0	1	1	432.549	0.0930754	0.0929129	0.00934877	2	-2.42874e-06	8.68621e-07
2	1	0	1	1	432.551	0.0975737	0.0974035	0.00936755	2	-2.41189e-06	9.12432e-07
2	1	0	1	1	432.552	0.0999061	0.0997192	0.00943712	2	-2.40345e-06	9.41063e-07
2	1	0	0	1	432.552	0.100239	0.100147	0.00933949	2	-2.40158e-06	9.35317e-07
2	0	0	1	1	432.552	0.0999061	0.0997803	0.00878264	2	-2.39983e-06	8.76334e-07
2	0	0	0	1	432.553	0.0970738	0.0969666	0.00608483	2	-2.39291e-06	5.90025e-07
2	0	0	0	1	432.555	0.0920757	0.0919614	0.00346447	2	-2.38371e-06	3.18597e-07
2	0	0	0	1	432.557	0.0870777	0.0869299	0.00217282	2	-2.37823e-06	1.88883e-07
2	0	0	0	1	432.559	0.0820795	0.0819616	0.0013848	2	-2.37476e-06	1.13501e-07
2	0	0	0	1	432.561	0.0770815	0.0769715	0.000809545	2	-2.37263e-06	6.23119e-08
2	0	0	0	1	432.563	0.0720834	0.0719599	0.000348709	2	-2.37152e-06	2.5093e-08
2	0	0	0	1	432.565	0.0670853	0.066962	-2.70124e-05	2	-2.37124e-06	1.8088e-09
2	0	0	0	1	432.567	0.0620872	0.0619932	-0.00034885	2	-2.37165e-06	2.16264e-08
2	0	0	0	1	432.569	0.0570891	0.0569876	-0.000654669	2	-2.37269e-06	3.7308e-08
2	0	0	0	1	432.571	0.052091	0.0519843	-0.000931332	2	-2.3743e-06	4.84147e-08
2	0	0	0	1	432.573	0.0470929	0.0469798	-0.00118022	2	-2.37644e-06	5.54463e-08
2	0	0	0	1	432.575	0.0420023	0.0418451	-0.00147154	2	-2.37912e-06	6.15768e-08
2	0	0	0	1	432.577	0.0369301	0.036792	-0.00167404	2	-2.38229e-06	6.15915e-08
2	0	0	0	1	432.579	0.031932	0.0317894	-0.00185582	2	-2.38583e-06	5.89955e-08
2	0	0	0	1	432.581	0.0269339	0.0267958	-0.00203714	2	-2.38974e-06	5.45868e-08
2	0	0	0	1	432.583	0.0219358	0.0218036	-0.00221843	2	-2.39402e-06	4.83697e-08
2	0	0	0	1	432.585	0.0169378	0.0168071	-0.00238709	2	-2.39864e-06	4.01201e-08
2	0	0	0	1	432.587	0.0119397	0.01181	-0.00256355	2	-2.40361e-06	3.02755e-08
2	0	0	0	1	432.589	0.00694157	0.00678889	-0.00272893	2	-2.40892e-06	1.85264e-08
2	0	0	0	1	432.591	0.00194348	0.00177586	-0.00289382	2	-2.41456e-06	5.13904e-09
2	0	0	0	1	432.593	-0.00305462	-0.00323716	-0.00304681	2	-2.42052e-06	9.86302e-09
2	0	0	0	1	432.595	-0.00805271	-0.00824468	-0.00318954	2	-2.42677e-06	2.62967e-08
2	0	0	0	1	432.597	-0.0130508	-0.0132302	-0.00333256	2	-2.4333e-06	4.40903e-08
2	0	0	0	1	432.599	-0.0180489	-0.0182207	-0.00347016	2	-2.44012e-06	6.32288e-08
2	0	0	0	1	432.601	-0.023047	-0.0232047	-0.00359804	2	-2.4472e-06	8.34914e-08
2	0	0	0	1	432.603	-0.0280451	-0.0281976	-0.00372515	2	-2.45453e-06	1.0504e-07
2	0	0	0	1	432.605	-0.0330432	-0.0332231	-0.0038747	2	-2.46215e-06	1.2873e-07
2	0	0	0	1	432.607	-0.0380413	-0.0381944	-0.00399836	2	-2.47003e-06	1.52715e-07
2	0	0	0	1	432.609	-0.0430394	-0.0432361	-0.00413685	2	-2.47818e-06	1.78861e-07
2	0	0	0	1	432.611	-0.0480375	-0.0482215	-0.00424758	2	-2.48658e-06	2.04825e-07
2	0	0	0	1	432.613	-0.0530356	-0.0532335	-0.0043866	2	-2.49523e-06	2.33514e-07
2	0	0	0	1	432.615	-0.0580337	-0.0582033	-0.00450297	2	-2.50413e-06	2.62088e-07
2	0	0	0	1	432.617	-0.0630317	-0.0632049	-0.00461279	2	-2.51325e-06	2.91551e-07
2	0	0	0	1	432.619	-0.0680299	-0.0681937	-0.0047312	2	-2.52261e-06	3.22638e-07
2	0	0	0	1	432.621	-0.0730279	-0.0732059	-0.00485197	2	-2.53221e-06	3.55193e-07
2	0	0	0	1	432.623	-0.078026	-0.0782043	-0.00496739	2	-2.54203e-06	3.88471e-07
2	0	0	0	1	432.625	-0.0830241	-0.0832002	-0.00508302	2	-2.5521e-06	4.22908e-07
2	0	0	0	1	432.627	-0.0880222	-0.0881856	-0.00519046	2	-2.56238e-06	4.57725e-07
2	0	0	0	1	432.629	-0.0930203	-0.093184	-0.00530338	2	-2.57288e-06	4.9419e-07
2	0	0	0	1	432.631	-0.0980184	-0.098164	-0.00542102	2	-2.58362e-06	5.32149e-07
2	0	0	0	1	432.633	-0.103017	-0.10318	-0.00553656	2	-2.59459e-06	5.71264e-07
2	0	0	0	1	432.635	-0.108015	-0.108163	-0.00563427	2	-2.60577e-06	6.09421e-07
2	0	0	0	1	432.637	-0.113013	-0.113157	-0.00573962	2	-2.61716e-06	6.49478e-07
2	0	0	0	1	432.639	-0.118011	-0.11816	-0.00586658	2	-2.62878e-06	6.93194e-07
2	0	0	0	1	432.641	-0.123009	-0.123164	-0.00597015	2	-2.64063e-06	7.35307e-07
2	0	0	0	1	432.643	-0.128007	-0.128176	-0.00609211	2	-2.6527e-06	7.80861e-07
2	0	0	0	1	432.645	-0.133005	-0.133173	-0.00619842	2	-2.665e-06	8.25465e-07
2	0	0	0	1	432.647	-0.138003	-0.138174	-0.00630494	2	-2.67751e-06	8.71178e-07
2	0	0	0	1	432.649	-0.143001	-0.143178	-0.00641834	2	-2.69025e-06	9.18966e-07
2	0	0	0	1	432.651	-0.147999	-0.148182	-0.00651646	2	-2.70319e-06	9.6562e-07
2	0	0	0	1	432.653	-0.152997	-0.153174	-0.00663245	2	-2.71635e-06	1.01592e-06
2	0	0	0	1	432.655	-0.157996	-0.158178	-0.00673956	2	-2.72974e-06	1.06605e-06
2	0	0	0	1	432.657	-0.162994	-0.163169	-0.00684955	2	-2.74333e-06	1.11763e-06
2	0	0	0	1	432.659	-0.167992	-0.168177	-0.00695327	2	-2.75715e-06	1.16938e-06
2	0	0	0	1	432.661	-0.17299	-0.173181	-0.00707521	2	-2.77119e-06	1.22529e-06
2	0	0	0	1	432.663	-0.177988	-0.178171	-0.00717239	2	-2.78544e-06	1.27791e-06
2	0	0	0	1	432.665	-0.182986	-0.183185	-0.00730753	2	-2.79993e-06	1.33863e-06
2	0	0	0	1	432.667	-0.187984	-0.188171	-0.00741383	2	-2.81466e-06	1.39507e-06
2	0	0	0	1	432.669	-0.192982	-0.193143	-0.00752798	2	-2.82962e-06	1.45398e-06
2	0	0	0	1	432.671	-0.19798	-0.198131	-0.00764206	2	-2.8448e-06	1.51413e-06
2	0	0	0	1	432.673	-0.202978	-0.203165	-0.00778246	2	-2.86024e-06	1.58112e-06
2	0	0	0	1	432.675	-0.207976	-0.208132	-0.00789755	2	-2.87593e-06	1.64374e-06
2	0	0	0	1	432.677	-0.212975	-0.213163	-0.00802342	2	-2.89186e-06	1.7103e-06
2	0	0	0	1	432.679	-0.217973	-0.218164	-0.00815275	2	-2.90805e-06	1.77863e-06
2	0	0	0	1	432.681	-0.222971	-0.223178	-0.00827209	2	-2.92449e-06	1.84615e-06
2	0	0	0	1	432.683	-0.227969	-0.22817	-0.00839496	2	-2.94116e-06	1.91548e-06
2	0	0	0	1	432.685	-0.232967	-0.233165	-0.00851523	2	-2.95808e-06	1.98545e-06
2	0	0	0	1	432.687	-0.237965	-0.238157	-0.00863169	2	-2.97524e-06	2.05569e-06
2	0	0	0	1	432.689	-0.242963	-0.243151	-0.00875138	2	-2.99264e-06	2.12791e-06
2	0	0	0	1	432.691	-0.247961	-0.248148	-0.0088875	2	-3.01029e-06	2.20542e-06
2	0	0	0	1	432.693	-0.252959	-0.253149	-0.00900923	2	-3.0282e-06	2.28068e-06
2	0	0	0	1	432.695	-0.257957	-0.258133	-0.00911581	2	-3.04633e-06	2.35309e-06
2	0	0	0	1	432.697	-0.262956	-0.26312	-0.00923599	2	-3.0647e-06	2.43017e-06
2	0	0	0	1	432.699	-0.267954	-0.268128	-0.00936236	2	-3.08331e-06	2.51032e-06
2	0	0	0	1	432.701	-0.272952	-0.27312	-0.00946839	2	-3.10215e-06	2.586e-06
2	0	0	0	1	432.703	-0.27795	-0.278119	-0.0095652	2	-3.12119e-06	2.66026e-06
2	0	0	0	1	432.705	-0.282948	-0.283101	-0.0096788	2	-3.14045e-06	2.74008e-06
2	0	0	0	1	432.707	-0.287946	-0.288108	-0.00978336	2	-3.15993e-06	2.81867e-06
2	0	0	0	1	432.709	-0.292944	-0.293112	-0.00990056	2	-3.17962e-06	2.90197e-06
2	0	0	0	1	432.711	-0.297942	-0.298123	-0.0100274	2	-3.19956e-06	2.9894e-06
2	0	0	0	1	432.713	-0.30294	-0.303146	-0.0101268	2	-3.21973e-06	3.06989e-06
2	0	0	0	1	432.715	-0.307938	-0.308127	-0.0102159	2	-3.24007e-06	3.14779e-06
2	0	0	0	1	432.717	-0.312936	-0.313144	-0.010324	2	-3.26062e-06	3.23291e-06
2	0	0	0	1	432.719	-0.317935	-0.318122	-0.0104272	2	-3.28138e-06	3.31713e-06
2	0	0	0	1	432.721	-0.322933	-0.323114	-0.0104976	2	-3.30232e-06	3.39191e-06
2	0	0	0	1	432.723	-0.327931	-0.328104	-0.0106023	2	-3.32342e-06	3.47867e-06
2	0	0	0	1	432.725	-0.332929	-0.333114	-0.0107087	2	-3.34475e-06	3.5672e-06
2	0	0	0	1	432.727	-0.337927	-0.338126	-0.010807	2	-3.36627e-06	3.65411e-06
2	0	0	0	1	432.729	-0.342925	-0.343156	-0.0109234	2	-3.38801e-06	3.74842e-06
2	0	0	0	1	432.731	-0.347923	-0.348139	-0.0110143	2	-3.40996e-06	3.8345e-06
2	0	0	0	1	432.733	-0.352921	-0.353159	-0.01112	2	-3.4321e-06	3.92712e-06
2	0	0	0	1	432.735	-0.357919	-0.358148	-0.011193	2	-3.45442e-06	4.00873e-06
2	0	0	0	1	432.737	-0.362917	-0.363127	-0.0112815	2	-3.47691e-06	4.09662e-06
2	0	0	0	1	432.739	-0.367916	-0.368116	-0.0113681	2	-3.49956e-06	4.18478e-06
2	0	0	0	1	432.741	-0.372914	-0.373129	-0.0114797	2	-3.52242e-06	4.28343e-06
2	0	0	0	1	432.743	-0.377912	-0.378116	-0.0116019	2	-3.54552e-06	4.38686e-06
2	0	0	0	1	432.745	-0.38291	-0.383137	-0.0116934	2	-3.56882e-06	4.48016e-06
2	0	0	0	1	432.747	-0.387908	-0.388132	-0.0118093	2	-3.59233e-06	4.58359e-06
2	0	0	0	1	432.749	-0.392906	-0.393142	-0.0119143	2	-3.61607e-06	4.684e-06
2	0	0	0	1	432.751	-0.398071	-0.398299	-0.0120857	2	-3.64011e-06	4.81371e-06
2	0	0	0	1	432.753	-0.403069	-0.403294	-0.0121516	2	-3.66435e-06	4.90067e-06
2	0	0	0	1	432.755	-0.408067	-0.408288	-0.0122503	2	-3.68876e-06	5.00166e-06
2	0	0	0	1	432.757	-0.413065	-0.413277	-0.012367	2	-3.71338e-06	5.11098e-06
2	0	0	0	1	432.759	-0.418063	-0.418291	-0.0125237	2	-3.73829e-06	5.23856e-06
2	0	0	0	1	432.761	-0.423061	-0.423271	-0.0126169	2	-3.76344e-06	5.34036e-06
2	0	0	0	1	432.763	-0.428059	-0.428273	-0.0127277	2	-3.7888e-06	5.45094e-06
2	0	0	0	1	432.765	-0.433057	-0.433267	-0.0128414	2	-3.81438e-06	5.56375e-06
2	0	0	0	1	432.767	-0.438055	-0.438271	-0.0129492	2	-3.84018e-06	5.67524e-06
2	0	0	0	1	432.769	-0.443054	-0.443264	-0.01311	2	-3.86625e-06	5.81119e-06
2	0	0	0	1	432.771	-0.448052	-0.448256	-0.0132261	2	-3.8926e-06	5.92867e-06
2	0	0	0	1	432.773	-0.45305	-0.453232	-0.0133486	2	-3.91919e-06	6.05e-06
2	0	0	0	1	432.775	-0.458048	-0.458237	-0.013492	2	-3.94604e-06	6.18254e-06
2	0	0	0	1	432.777	-0.463046	-0.463238	-0.0136633	2	-3.97321e-06	6.32935e-06
2	0	0	0	1	432.779	-0.468044	-0.468268	-0.0138447	2	-4.00074e-06	6.48303e-06
2	0	0	0	1	432.781	-0.473042	-0.473263	-0.0139731	2	-4.02857e-06	6.61295e-06
2	0	0	0	1	432.783	-0.47804	-0.478253	-0.0141385	2	-4.0567e-06	6.76179e-06
2	0	0	0	1	432.785	-0.483038	-0.483268	-0.0143085	2	-4.08516e-06	6.91486e-06
2	0	0	0	1	432.787	-0.488036	-0.488247	-0.0144457	2	-4.11393e-06	7.05309e-06
2	0	0	0	1	432.789	-0.493034	-0.493254	-0.0146103	2	-4.143e-06	7.20658e-06
2	0	0	0	1	432.791	-0.498033	-0.498264	-0.0147942	2	-4.17242e-06	7.37144e-06
2	0	0	0	1	432.793	-0.503031	-0.503262	-0.0149522	2	-4.20219e-06	7.52487e-06
2	0	0	0	1	432.795	-0.508029	-0.508246	-0.015133	2	-4.23229e-06	7.69129e-06
2	0	0	0	1	432.797	-0.513027	-0.513244	-0.0153169	2	-4.26276e-06	7.86133e-06
2	0	0	0	1	432.799	-0.518025	-0.518241	-0.015521	2	-4.29362e-06	8.04362e-06
2	0	0	0	1	432.801	-0.523023	-0.52325	-0.0157002	2	-4.32485e-06	8.21514e-06
2	0	0	0	1	432.803	-0.528021	-0.528239	-0.0158987	2	-4.35647e-06	8.3983e-06
2	0	0	0	1	432.805	-0.533019	-0.533225	-0.0160885	2	-4.38848e-06	8.5788e-06
2	0	0	0	1	432.807	-0.538017	-0.53822	-0.0163042	2	-4.42089e-06	8.77527e-06
2	0	0	0	1	432.809	-0.543015	-0.543213	-0.0165014	2	-4.45372e-06	8.96378e-06
2	0	0	0	1	432.811	-0.548014	-0.548227	-0.0166923	2	-4.48693e-06	9.15117e-06
2	0	0	0	1	432.813	-0.553012	-0.553239	-0.0169398	2	-4.52058e-06	9.37175e-06
2	0	0	0	1	432.815	-0.55801	-0.558243	-0.0171667	2	-4.55471e-06	9.5832e-06
2	0	0	0	1	432.817	-0.563008	-0.563221	-0.0174084	2	-4.58931e-06	9.80476e-06
2	0	0	0	1	432.819	-0.568006	-0.568226	-0.0176674	2	-4.62441e-06	1.00391e-05
2	0	0	0	1	432.821	-0.573004	-0.573218	-0.017936	2	-4.66004e-06	1.02812e-05
2	0	0	0	1	432.823	-0.578002	-0.578225	-0.0181284	2	-4.69613e-06	1.04823e-05
2	0	0	0	1	432.825	-0.583	-0.583204	-0.0183833	2	-4.73266e-06	1.07212e-05
2	0	0	0	1	432.827	-0.587998	-0.588212	-0.0186836	2	-4.76976e-06	1.09899e-05
2	0	0	0	1	432.829	-0.592996	-0.593221	-0.018912	2	-4.80738e-06	1.1219e-05
2	0	0	0	1	432.831	-0.597495	-0.597697	-0.0191756	2	-4.84166e-06	1.14612e-05
2	0	0	0	1	432.832	-0.599827	-0.599993	-0.0193879	2	-4.85897e-06	1.16326e-05
2	0	0	1	1	432.832	-0.60016	-0.600378	-0.0192868	2	-4.86282e-06	1.15794e-05