File: TAP_Report/Data/Res_SHU/100 uM RS 10mM SHU_01_CV_C01_2.mpt
EC-Lab ASCII FILE
Nb header lines : 53

Cyclic Voltammetry

Run on channel : 1 (SN 0696)
User :
Electrode connection : standard
Ewe ctrl range : min = -10.00 V, max = 10.00 V
Ewe,I filtering : 50 kHz
Channel : Grounded
Acquisition started on : 05/17/2017 13:04:41
Saved on :
	File : 100 uM RS 10mM SHU_01_CV_C01.mpr
	Directory : \\userfs\st659\w2k\EC-Lab\Data\ITO Characterisation 17-5-17\
	Host : 144.32.136.43
Device : SP-300 (SN 0182)
Address : USB
EC-Lab for windows v10.44 (software)
Internet server v10.44 (firmware)
Command interpretor v10.44 (firmware)
Electrode material :
Initial state :
Electrolyte :
Comments :
Cable : standard
Electrode surface area : 0.001 cm²
Characteristic mass : 0.001 g
Equivalent Weight : 0.000 g/eq.
Density : 0.000 g/cm3
Ei (V)              0.000
vs.                 Eoc
dE/dt               20.000
dE/dt unit          mV/s
E1 (V)              0.100
vs.                 Ref
Step percent        50
N                   10
E range min (V)     -10.000
E range max (V)     10.000
I Range             Auto
I Range min         Unset
I Range max         Unset
I Range init        Unset
Bandwidth           8
E2 (V)              -0.600
vs.                 Ref
nc cycles           2
Reverse Scan        1
Ef (V)              0.000
vs.                 Eoc

mode	ox/red	error	control changes	counter inc.	time/s	control/V	Ewe/V	<I>/mA	cycle number	(Q-Qo)/C	P/W
2	1	0	0	1	53.9136	-0.599827	-0.600012	-0.0101556	2	-0.000202167	6.09346e-06
2	1	0	0	1	54.0053	-0.597995	-0.598196	-0.00991973	2	-0.000203076	5.93394e-06
2	1	0	1	1	54.1719	-0.594663	-0.594878	-0.00958876	2	-0.000204693	5.70415e-06
2	1	0	0	1	54.3385	-0.591331	-0.591546	-0.00931689	2	-0.00020626	5.51137e-06
2	1	0	1	1	54.5051	-0.587999	-0.588215	-0.00907034	2	-0.000207785	5.33531e-06
2	1	0	0	1	54.6718	-0.584665	-0.584883	-0.00885448	2	-0.000209272	5.17884e-06
2	1	0	1	1	54.8384	-0.581333	-0.581539	-0.00865388	2	-0.000210723	5.03257e-06
2	1	0	0	1	55.005	-0.578001	-0.578234	-0.00846709	2	-0.000212143	4.89596e-06
2	1	0	1	1	55.1716	-0.574669	-0.574909	-0.00829302	2	-0.000213532	4.76773e-06
2	1	0	0	1	55.3382	-0.571337	-0.571562	-0.00812898	2	-0.000214893	4.64622e-06
2	1	0	1	1	55.5048	-0.568005	-0.568251	-0.007971	2	-0.000216228	4.52953e-06
2	1	0	0	1	55.6714	-0.564672	-0.564897	-0.00782294	2	-0.000217537	4.41916e-06
2	1	0	1	1	55.838	-0.561341	-0.561553	-0.00767774	2	-0.000218821	4.31146e-06
2	1	0	0	1	56.0046	-0.558009	-0.558224	-0.00754374	2	-0.000220083	4.21109e-06
2	1	0	1	1	56.1712	-0.554677	-0.554911	-0.00741236	2	-0.000221322	4.1132e-06
2	1	0	0	1	56.3378	-0.551345	-0.55156	-0.00728859	2	-0.00022254	4.0201e-06
2	1	0	1	1	56.5044	-0.548013	-0.548219	-0.00716548	2	-0.000223737	3.92825e-06
2	1	0	0	1	56.671	-0.544681	-0.544894	-0.00705087	2	-0.000224915	3.84198e-06
2	1	0	1	1	56.8376	-0.541349	-0.541541	-0.00693483	2	-0.000226074	3.75549e-06
2	1	0	0	1	57.0042	-0.538017	-0.538216	-0.00682465	2	-0.000227214	3.67313e-06
2	1	0	1	1	57.1708	-0.534685	-0.534894	-0.00671851	2	-0.000228335	3.59369e-06
2	1	0	0	1	57.3374	-0.531353	-0.531571	-0.006616	2	-0.00022944	3.51688e-06
2	1	0	1	1	57.504	-0.528021	-0.528231	-0.0065141	2	-0.000230527	3.44095e-06
2	1	0	0	1	57.6706	-0.524689	-0.524921	-0.00641362	2	-0.000231597	3.36664e-06
2	1	0	1	1	57.8372	-0.521357	-0.521573	-0.00631828	2	-0.000232652	3.29544e-06
2	1	0	0	1	58.0038	-0.518025	-0.518244	-0.00622479	2	-0.00023369	3.22596e-06
2	1	0	1	1	58.1704	-0.514693	-0.51492	-0.00613052	2	-0.000234713	3.15673e-06
2	1	0	0	1	58.337	-0.511361	-0.511597	-0.00603966	2	-0.000235721	3.08987e-06
2	1	0	1	1	58.5036	-0.508029	-0.508246	-0.00594998	2	-0.000236713	3.02406e-06
2	1	0	0	1	58.6702	-0.504697	-0.5049	-0.0058638	2	-0.000237691	2.96063e-06
2	1	0	1	1	58.8368	-0.501365	-0.501578	-0.0057766	2	-0.000238655	2.89742e-06
2	1	0	0	1	59.0034	-0.498033	-0.498228	-0.00569232	2	-0.000239604	2.83608e-06
2	1	0	1	1	59.17	-0.494701	-0.494884	-0.00560995	2	-0.000240539	2.77628e-06
2	1	0	0	1	59.3366	-0.491369	-0.491567	-0.00552676	2	-0.000241461	2.71677e-06
2	1	0	1	1	59.5032	-0.488037	-0.488265	-0.00544708	2	-0.000242369	2.65962e-06
2	1	0	0	1	59.6698	-0.484705	-0.48493	-0.00536913	2	-0.000243264	2.60365e-06
2	1	0	1	1	59.8364	-0.481373	-0.481584	-0.00529117	2	-0.000244145	2.54814e-06
2	1	0	0	1	60.003	-0.478041	-0.478262	-0.00521277	2	-0.000245014	2.49307e-06
2	1	0	1	1	60.1696	-0.474709	-0.474916	-0.005134	2	-0.00024587	2.43822e-06
2	1	0	0	1	60.3362	-0.471377	-0.471606	-0.00505915	2	-0.000246713	2.38592e-06
2	1	0	1	1	60.5028	-0.468045	-0.468263	-0.00498398	2	-0.000247543	2.33381e-06
2	1	0	0	1	60.6694	-0.464713	-0.464908	-0.004912	2	-0.000248362	2.28363e-06
2	1	0	1	1	60.861	-0.460881	-0.461104	-0.00483288	2	-0.000249288	2.22846e-06
2	1	0	0	1	61.0526	-0.457049	-0.457259	-0.00476464	2	-0.000250201	2.17867e-06
2	1	0	1	1	61.2192	-0.453717	-0.453901	-0.00469292	2	-0.000250983	2.13012e-06
2	1	0	0	1	61.3858	-0.450385	-0.450593	-0.00462242	2	-0.000251753	2.08283e-06
2	1	0	1	1	61.5524	-0.447053	-0.447257	-0.00455151	2	-0.000252511	2.03569e-06
2	1	0	0	1	61.719	-0.443721	-0.443927	-0.00448259	2	-0.000253258	1.98994e-06
2	1	0	1	1	61.8856	-0.440389	-0.440598	-0.0044139	2	-0.000253993	1.94476e-06
2	1	0	0	1	62.0522	-0.437057	-0.43726	-0.00434376	2	-0.000254716	1.89935e-06
2	1	0	1	1	62.2188	-0.433725	-0.433895	-0.00427506	2	-0.000255428	1.85493e-06
2	1	0	0	1	62.3854	-0.430393	-0.430603	-0.00420823	2	-0.000256129	1.81208e-06
2	1	0	1	1	62.552	-0.427061	-0.427271	-0.00414068	2	-0.000256818	1.76919e-06
2	1	0	0	1	62.7186	-0.423729	-0.423966	-0.00407407	2	-0.000257497	1.72726e-06
2	1	0	1	1	62.8852	-0.420397	-0.420645	-0.00400756	2	-0.000258164	1.68576e-06
2	1	0	0	1	63.0518	-0.417065	-0.417292	-0.00394187	2	-0.00025882	1.64491e-06
2	1	0	1	1	63.2184	-0.413733	-0.413951	-0.00387753	2	-0.000259465	1.60511e-06
2	1	0	1	1	63.3851	-0.410399	-0.410616	-0.00381211	2	-0.0002601	1.56531e-06
2	1	0	0	1	63.5517	-0.407067	-0.407285	-0.00374838	2	-0.000260724	1.52666e-06
2	1	0	1	1	63.7183	-0.403735	-0.403973	-0.00368267	2	-0.000261337	1.4877e-06
2	1	0	0	1	63.8849	-0.400403	-0.400632	-0.00361795	2	-0.000261939	1.44947e-06
2	1	0	1	1	64.0515	-0.397071	-0.397305	-0.003554	2	-0.00026253	1.41202e-06
2	1	0	0	1	64.2181	-0.393739	-0.393969	-0.00349088	2	-0.000263111	1.3753e-06
2	1	0	1	1	64.3847	-0.390407	-0.390622	-0.00342918	2	-0.000263682	1.33951e-06
2	1	0	0	1	64.5513	-0.387075	-0.387299	-0.00336745	2	-0.000264242	1.30421e-06
2	1	0	1	1	64.7179	-0.383743	-0.383978	-0.00330787	2	-0.000264792	1.27015e-06
2	1	0	0	1	64.8845	-0.380411	-0.380626	-0.00324757	2	-0.000265332	1.23611e-06
2	1	0	1	1	65.0511	-0.377079	-0.377313	-0.00318884	2	-0.000265862	1.20319e-06
2	1	0	0	1	65.2177	-0.373747	-0.373965	-0.0031289	2	-0.000266383	1.1701e-06
2	1	0	1	1	65.3843	-0.370415	-0.370617	-0.00307195	2	-0.000266893	1.13852e-06
2	1	0	0	1	65.5509	-0.367083	-0.367284	-0.00301551	2	-0.000267394	1.10755e-06
2	1	0	1	1	65.7175	-0.363751	-0.363954	-0.00295876	2	-0.000267886	1.07685e-06
2	1	0	0	1	65.8841	-0.360419	-0.360638	-0.00290357	2	-0.000268369	1.04714e-06
2	1	0	1	1	66.0507	-0.357087	-0.357304	-0.00284741	2	-0.000268842	1.01739e-06
2	1	0	0	1	66.2173	-0.353755	-0.35397	-0.00279307	2	-0.000269306	9.88664e-07
2	1	0	1	1	66.384	-0.350421	-0.350656	-0.00273659	2	-0.000269761	9.596e-07
2	1	0	0	1	66.5506	-0.347089	-0.347308	-0.00268187	2	-0.000270206	9.31433e-07
2	1	0	1	1	66.7172	-0.343757	-0.343983	-0.00262652	2	-0.000270643	9.03477e-07
2	1	0	0	1	66.8838	-0.340425	-0.340649	-0.00257265	2	-0.00027107	8.76368e-07
2	1	0	1	1	67.0504	-0.337093	-0.33728	-0.00251897	2	-0.000271488	8.49598e-07
2	1	0	0	1	67.217	-0.333761	-0.333956	-0.00246636	2	-0.000271898	8.23656e-07
2	1	0	1	1	67.3836	-0.330428	-0.330618	-0.00241521	2	-0.000272299	7.98513e-07
2	1	0	0	1	67.5502	-0.327097	-0.327262	-0.00236363	2	-0.000272691	7.73527e-07
2	1	0	1	1	67.7168	-0.323765	-0.323938	-0.00231283	2	-0.000273075	7.49215e-07
2	1	0	0	1	67.8834	-0.320433	-0.320612	-0.00226349	2	-0.00027345	7.25704e-07
2	1	0	1	1	68.05	-0.317101	-0.317329	-0.00221525	2	-0.000273817	7.02961e-07
2	1	0	0	1	68.2166	-0.313769	-0.313971	-0.00216739	2	-0.000274177	6.80499e-07
2	1	0	1	1	68.3832	-0.310437	-0.310636	-0.00211988	2	-0.000274528	6.58512e-07
2	1	0	0	1	68.5498	-0.307105	-0.307297	-0.00207308	2	-0.000274871	6.37053e-07
2	1	0	1	1	68.7164	-0.303773	-0.303975	-0.0020272	2	-0.000275207	6.16217e-07
2	1	0	0	1	68.883	-0.300441	-0.30063	-0.00198113	2	-0.000275535	5.95587e-07
2	1	0	1	1	69.0496	-0.297109	-0.297277	-0.00193684	2	-0.000275856	5.75777e-07
2	1	0	0	1	69.2162	-0.293777	-0.29395	-0.00189297	2	-0.000276169	5.5644e-07
2	1	0	1	1	69.3828	-0.290445	-0.29063	-0.00185005	2	-0.000276475	5.37681e-07
2	1	0	0	1	69.5494	-0.287113	-0.287293	-0.00180735	2	-0.000276774	5.1924e-07
2	1	0	1	1	69.716	-0.283781	-0.283956	-0.00176608	2	-0.000277066	5.0149e-07
2	1	0	0	1	69.8826	-0.280449	-0.280622	-0.00172477	2	-0.000277351	4.8401e-07
2	1	0	1	1	70.0492	-0.277117	-0.277289	-0.00168383	2	-0.000277629	4.66908e-07
2	1	0	0	1	70.2158	-0.273785	-0.27396	-0.00164466	2	-0.000277901	4.50572e-07
2	1	0	1	1	70.3824	-0.270453	-0.270642	-0.00160581	2	-0.000278166	4.34601e-07
2	1	0	0	1	70.549	-0.267121	-0.267319	-0.00156746	2	-0.000278425	4.19013e-07
2	1	0	1	1	70.7156	-0.263789	-0.263961	-0.00152885	2	-0.000278677	4.03558e-07
2	1	0	0	1	70.8822	-0.260457	-0.260635	-0.00149114	2	-0.000278923	3.88643e-07
2	1	0	1	1	71.0488	-0.257125	-0.257295	-0.00145382	2	-0.000279162	3.74061e-07
2	1	0	0	1	71.2154	-0.253793	-0.253985	-0.0014174	2	-0.000279396	3.59999e-07
2	1	0	1	1	71.382	-0.250461	-0.250649	-0.00138104	2	-0.000279623	3.46157e-07
2	1	0	0	1	71.5486	-0.247129	-0.247312	-0.00134503	2	-0.000279845	3.32642e-07
2	1	0	1	1	71.7152	-0.243797	-0.243964	-0.00130939	2	-0.00028006	3.19443e-07
2	1	0	0	1	71.8818	-0.240465	-0.24065	-0.00127437	2	-0.00028027	3.06678e-07
2	1	0	1	1	72.0484	-0.237133	-0.237331	-0.00123824	2	-0.000280474	2.93873e-07
2	1	0	0	1	72.215	-0.233801	-0.233999	-0.0012029	2	-0.000280671	2.81476e-07
2	1	0	1	1	72.3816	-0.230469	-0.230669	-0.00116727	2	-0.000280863	2.69252e-07
2	1	0	0	1	72.5482	-0.227137	-0.227354	-0.00113395	2	-0.000281049	2.57807e-07
2	1	0	1	1	72.7148	-0.223805	-0.224003	-0.00110068	2	-0.00028123	2.46556e-07
2	1	0	0	1	72.8814	-0.220473	-0.220673	-0.00106752	2	-0.000281405	2.35573e-07
2	1	0	1	1	73.048	-0.217141	-0.217335	-0.00103404	2	-0.000281574	2.24732e-07
2	1	0	0	1	73.2146	-0.213809	-0.213993	-0.0010009	2	-0.000281738	2.14186e-07
2	1	0	1	1	73.3812	-0.210477	-0.210655	-0.000967291	2	-0.000281897	2.03765e-07
2	1	0	0	1	73.5478	-0.207145	-0.207321	-0.000933678	2	-0.00028205	1.93571e-07
2	1	0	1	1	73.7144	-0.203813	-0.203984	-0.000901454	2	-0.000282197	1.83882e-07
2	1	0	0	1	73.881	-0.200481	-0.200653	-0.000868208	2	-0.000282339	1.74209e-07
2	1	0	0	1	74.0477	-0.197147	-0.197331	-0.000835055	2	-0.000282475	1.64782e-07
2	1	0	1	1	74.2143	-0.193815	-0.193993	-0.000801185	2	-0.000282606	1.55424e-07
2	1	0	0	1	74.3809	-0.190483	-0.190655	-0.000767543	2	-0.000282731	1.46336e-07
2	1	0	1	1	74.5475	-0.187151	-0.187312	-0.00073374	2	-0.000282851	1.37438e-07
2	1	0	0	1	74.7141	-0.183819	-0.184014	-0.000700608	2	-0.000282965	1.28922e-07
2	1	0	1	1	74.8807	-0.180487	-0.180675	-0.000666761	2	-0.000283073	1.20467e-07
2	1	0	0	1	75.0473	-0.177155	-0.177323	-0.00063293	2	-0.000283176	1.12233e-07
2	1	0	1	1	75.2139	-0.173823	-0.174001	-0.000599486	2	-0.000283273	1.04311e-07
2	1	0	0	1	75.3805	-0.170491	-0.170676	-0.000566671	2	-0.000283365	9.67172e-08
2	1	0	1	1	75.5471	-0.167159	-0.16735	-0.000534013	2	-0.000283451	8.93668e-08
2	1	0	0	1	75.7387	-0.163327	-0.163512	-0.000498253	2	-0.000283544	8.14704e-08
2	1	0	1	1	75.9303	-0.159495	-0.159681	-0.000464102	2	-0.00028363	7.41083e-08
2	1	0	0	1	76.0969	-0.156163	-0.156341	-0.000433389	2	-0.000283699	6.77565e-08
2	1	0	1	1	76.2635	-0.152831	-0.153004	-0.000404484	2	-0.000283764	6.18877e-08
2	1	0	0	1	76.4301	-0.149499	-0.149687	-0.000375566	2	-0.000283823	5.62175e-08
2	1	0	1	1	76.5967	-0.146167	-0.146367	-0.00034846	2	-0.000283878	5.10031e-08
2	1	0	0	1	76.7633	-0.142835	-0.143027	-0.000321933	2	-0.000283928	4.60452e-08
2	1	0	1	1	76.9299	-0.139503	-0.139693	-0.000296965	2	-0.000283974	4.1484e-08
2	1	0	0	1	77.0965	-0.136171	-0.136353	-0.000272466	2	-0.000284016	3.71516e-08
2	1	0	1	1	77.2631	-0.132839	-0.133015	-0.000249568	2	-0.000284053	3.31962e-08
2	1	0	0	1	77.4297	-0.129507	-0.129666	-0.000228273	2	-0.000284088	2.95993e-08
2	1	0	1	1	77.5963	-0.126175	-0.126326	-0.000207493	2	-0.000284118	2.62118e-08
2	1	0	0	1	77.7629	-0.122843	-0.12297	-0.00018841	2	-0.000284146	2.31687e-08
2	1	0	1	1	77.9295	-0.119511	-0.119659	-0.00017166	2	-0.00028417	2.05407e-08
2	1	0	0	1	78.0962	-0.116177	-0.116326	-0.000155709	2	-0.000284192	1.81129e-08
2	1	0	1	1	78.2628	-0.112845	-0.112977	-0.000140681	2	-0.000284211	1.58937e-08
2	1	0	0	1	78.4294	-0.109513	-0.109655	-0.000127894	2	-0.000284228	1.40242e-08
2	1	0	1	1	78.596	-0.106181	-0.106337	-0.000115944	2	-0.000284243	1.23292e-08
2	1	0	0	1	78.7626	-0.102849	-0.103011	-0.000107262	2	-0.000284256	1.10492e-08
2	1	0	1	1	78.9292	-0.0995165	-0.0996713	-9.84052e-05	2	-0.000284268	9.80817e-09
2	1	0	0	1	79.0958	-0.0961844	-0.0963235	-9.18458e-05	2	-0.000284278	8.84691e-09
2	1	0	1	1	79.2624	-0.0928528	-0.0929933	-8.68438e-05	2	-0.000284288	8.07589e-09
2	1	0	0	1	79.429	-0.0895208	-0.0896654	-8.30677e-05	2	-0.000284297	7.4483e-09
2	1	0	1	1	79.5956	-0.0861887	-0.0863296	-8.04757e-05	2	-0.000284305	6.94744e-09
2	1	0	0	1	79.7622	-0.0828566	-0.0830254	-7.92631e-05	2	-0.000284313	6.58085e-09
2	1	0	1	1	79.9288	-0.0795246	-0.0796878	-8.02717e-05	2	-0.000284321	6.39668e-09
2	1	0	0	1	80.0954	-0.0761925	-0.0763532	-8.17789e-05	2	-0.000284329	6.24408e-09
2	1	0	1	1	80.262	-0.0728609	-0.0730226	-8.48767e-05	2	-0.000284338	6.19791e-09
2	1	0	0	1	80.4286	-0.0695288	-0.0696883	-8.85135e-05	2	-0.000284347	6.16835e-09
2	1	0	1	1	80.5952	-0.0661968	-0.0663679	-9.32498e-05	2	-0.000284357	6.18879e-09
2	1	0	0	1	80.7618	-0.0628647	-0.0630292	-9.88889e-05	2	-0.000284368	6.23288e-09
2	1	0	1	1	80.9284	-0.0595326	-0.059719	-0.000105104	2	-0.000284379	6.27672e-09
2	1	0	0	1	81.095	-0.0562006	-0.0563831	-0.000111334	2	-0.000284392	6.27736e-09
2	1	0	1	1	81.2616	-0.052869	-0.0530378	-0.000118672	2	-0.000284406	6.29409e-09
2	1	0	0	1	81.4282	-0.0495369	-0.0497108	-0.000125577	2	-0.000284421	6.24253e-09
2	1	0	1	1	81.5948	-0.0462048	-0.0463753	-0.00013281	2	-0.000284438	6.15912e-09
2	1	0	0	1	81.7614	-0.0428728	-0.0430633	-0.000140106	2	-0.000284455	6.03343e-09
2	1	0	1	1	81.928	-0.0395407	-0.0396864	-0.000147141	2	-0.000284474	5.83948e-09
2	1	0	0	1	82.0946	-0.0362086	-0.0363679	-0.000154232	2	-0.000284494	5.6091e-09
2	1	0	1	1	82.2612	-0.0328766	-0.0330464	-0.000161102	2	-0.000284515	5.32383e-09
2	1	0	0	1	82.4278	-0.029545	-0.0297077	-0.000167136	2	-0.000284537	4.96522e-09
2	1	0	1	1	82.5944	-0.0262129	-0.0263476	-0.00017306	2	-0.00028456	4.55971e-09
2	1	0	0	1	82.761	-0.0228808	-0.0230167	-0.000179226	2	-0.000284585	4.1252e-09
2	1	0	1	1	82.9276	-0.0195488	-0.0197083	-0.000185413	2	-0.00028461	3.65418e-09
2	1	0	0	1	83.0942	-0.0162167	-0.0163894	-0.000189892	2	-0.000284636	3.11221e-09
2	1	0	1	1	83.2608	-0.0128846	-0.013061	-0.000193608	2	-0.000284663	2.52872e-09
2	1	0	0	1	83.4274	-0.00955303	-0.00973654	-0.00019826	2	-0.00028469	1.93037e-09
2	1	0	1	1	83.594	-0.00622097	-0.00639893	-0.00020238	2	-0.000284719	1.29502e-09
2	1	0	0	1	83.7606	-0.0028889	-0.00307712	-0.000205781	2	-0.000284748	6.33212e-10
2	1	0	1	1	83.9272	0.000455576	0.000273138	-0.000208532	2	-0.000284777	5.69579e-11
2	1	0	0	1	84.0938	0.00377522	0.00363307	-0.000210677	2	-0.000284807	7.65403e-10
2	1	0	1	1	84.2604	0.00710728	0.00695126	-0.00021334	2	-0.000284837	1.48298e-09
2	1	0	0	1	84.427	0.0104389	0.0103043	-0.00021384	2	-0.000284868	2.20347e-09
2	1	0	1	1	84.5936	0.013771	0.0136403	-0.000216021	2	-0.000284899	2.94659e-09
2	1	0	0	1	84.7602	0.017103	0.0169546	-0.000216936	2	-0.00028493	3.67805e-09
2	1	0	1	1	84.9268	0.0204351	0.0203122	-0.000217318	2	-0.000284961	4.4142e-09
2	1	0	0	1	85.0934	0.0237671	0.0236292	-0.000217643	2	-0.000284992	5.14273e-09
2	1	0	1	1	85.26	0.0270992	0.0269588	-0.000217574	2	-0.000285023	5.86553e-09
2	1	0	0	1	85.4266	0.0304313	0.0302829	-0.000217741	2	-0.000285055	6.59383e-09
2	1	0	1	1	85.5932	0.0337633	0.0336199	-0.000217013	2	-0.000285086	7.29594e-09
2	1	0	1	1	85.7599	0.0370972	0.0369548	-0.000215821	2	-0.000285117	7.97562e-09
2	1	0	0	1	85.9265	0.0404292	0.0402886	-0.000214953	2	-0.000285148	8.66016e-09
2	1	0	1	1	86.0931	0.0437613	0.0436326	-0.000214006	2	-0.000285179	9.33766e-09
2	1	0	0	1	86.2597	0.0470933	0.0469847	-0.000212052	2	-0.000285209	9.9632e-09
2	1	0	1	1	86.4263	0.0504254	0.0503111	-0.000210695	2	-0.00028524	1.06003e-08
2	1	0	0	1	86.5929	0.0537575	0.0536508	-0.000208813	2	-0.00028527	1.1203e-08
2	1	0	1	1	86.7595	0.0570891	0.0569872	-0.000206664	2	-0.000285299	1.17772e-08
2	1	0	0	1	86.9261	0.0604211	0.0603208	-0.000204966	2	-0.000285329	1.23637e-08
2	1	0	1	1	87.0927	0.0637532	0.0636299	-0.000202832	2	-0.000285358	1.29062e-08
2	1	0	0	1	87.2593	0.0670853	0.0669562	-0.000200151	2	-0.000285386	1.34013e-08
2	1	0	1	1	87.4259	0.0704173	0.0702761	-0.000197467	2	-0.000285415	1.38772e-08
2	1	0	0	1	87.5925	0.0737494	0.0736241	-0.000194907	2	-0.000285443	1.43498e-08
2	1	0	1	1	87.7591	0.077081	0.076955	-0.000192188	2	-0.00028547	1.47898e-08
2	1	0	0	1	87.9257	0.0804131	0.0802828	-0.000188724	2	-0.000285497	1.51513e-08
2	1	0	1	1	88.0923	0.0837451	0.0836196	-0.000185725	2	-0.000285523	1.55302e-08
2	1	0	0	1	88.2589	0.0870772	0.0869335	-0.000182656	2	-0.000285549	1.58789e-08
2	1	0	1	1	88.4255	0.0904092	0.090272	-0.000179108	2	-0.000285575	1.61685e-08
2	1	0	0	1	88.5921	0.0937413	0.0935863	-0.000175386	2	-0.000285599	1.64137e-08
2	1	0	1	1	88.7588	0.0970752	0.0969378	-0.000172071	2	-0.000285624	1.66802e-08
2	1	0	0	1	88.867	0.0992397	0.0990973	-0.000168842	2	-0.000285639	1.67318e-08
2	0	0	0	1	88.9008	0.0999061	0.0998031	-0.000168596	2	-0.000285644	1.68265e-08
2	0	0	1	1	88.9924	0.0980721	0.0979405	-0.000207317	2	-0.000285665	2.03047e-08
2	0	0	0	1	89.159	0.0947405	0.0946056	-0.000249023	2	-0.000285708	2.3559e-08
2	0	0	1	1	89.3256	0.0914084	0.0912737	-0.000282869	2	-0.000285757	2.58186e-08
2	0	0	0	1	89.4922	0.0880764	0.0879325	-0.000312954	2	-0.000285812	2.75188e-08
2	0	0	1	1	89.6588	0.0847443	0.0846084	-0.000339896	2	-0.000285871	2.8758e-08
2	0	0	0	1	89.8254	0.0814123	0.0812877	-0.000363863	2	-0.000285934	2.95776e-08
2	0	0	1	1	89.992	0.0780802	0.077966	-0.000387396	2	-0.000286002	3.02037e-08
2	0	0	0	1	90.1586	0.0747486	0.074615	-0.00040989	2	-0.000286073	3.0584e-08
2	0	0	1	1	90.3252	0.0714165	0.0712876	-0.000430293	2	-0.000286148	3.06745e-08
2	0	0	0	1	90.4918	0.0680844	0.0679633	-0.000449529	2	-0.000286226	3.05515e-08
2	0	0	1	1	90.6584	0.0647524	0.0646313	-0.000468278	2	-0.000286308	3.02654e-08
2	0	0	0	1	90.825	0.0614203	0.0613147	-0.000485462	2	-0.000286392	2.97659e-08
2	0	0	1	1	90.9916	0.0580883	0.0579851	-0.000501958	2	-0.000286479	2.91061e-08
2	0	0	0	1	91.1582	0.0547567	0.0546384	-0.000517739	2	-0.000286569	2.82884e-08
2	0	0	1	1	91.3248	0.0514246	0.0512884	-0.000533269	2	-0.000286662	2.73505e-08
2	0	0	0	1	91.4914	0.0480925	0.0479701	-0.000547934	2	-0.000286757	2.62845e-08
2	0	0	1	1	91.658	0.0447605	0.0446195	-0.000562253	2	-0.000286854	2.50874e-08
2	0	0	0	1	91.8246	0.0414284	0.0412836	-0.000575771	2	-0.000286954	2.37699e-08
2	0	0	1	1	91.9912	0.0380963	0.0379538	-0.000588774	2	-0.000287056	2.23462e-08
2	0	0	0	1	92.1578	0.0347643	0.0346158	-0.000601344	2	-0.00028716	2.0816e-08
2	0	0	1	1	92.3244	0.0314327	0.0312796	-0.000613468	2	-0.000287266	1.9189e-08
2	0	0	0	1	92.491	0.0281006	0.027949	-0.000625334	2	-0.000287374	1.74774e-08
2	0	0	1	1	92.6576	0.0247685	0.0246189	-0.000637045	2	-0.000287484	1.56834e-08
2	0	0	0	1	92.8242	0.0214365	0.0213161	-0.000647867	2	-0.000287596	1.381e-08
2	0	0	1	1	92.9908	0.0181044	0.0179827	-0.000658958	2	-0.00028771	1.18498e-08
2	0	0	0	1	93.1574	0.0147724	0.0146529	-0.000669158	2	-0.000287826	9.80512e-09
2	0	0	1	1	93.324	0.0114403	0.0112833	-0.000679545	2	-0.000287943	7.66751e-09
2	0	0	0	1	93.4906	0.00810868	0.00793866	-0.000688408	2	-0.000288062	5.46503e-09
2	0	0	1	1	93.6572	0.00477662	0.00462466	-0.000698625	2	-0.000288183	3.2309e-09
2	0	0	0	1	93.8238	0.00144456	0.00126662	-0.000708622	2	-0.000288305	8.97557e-10
2	0	0	1	1	93.9904	-0.00188751	-0.00207214	-0.000717837	2	-0.000288429	1.48746e-09
2	0	0	0	1	94.157	-0.00521957	-0.00540006	-0.000727538	2	-0.000288554	3.92875e-09
2	0	0	1	1	94.3236	-0.00855163	-0.0087436	-0.000736133	2	-0.000288681	6.43645e-09
2	0	0	0	1	94.4902	-0.0118833	-0.0120755	-0.000744962	2	-0.00028881	8.99578e-09
2	0	0	1	1	94.6568	-0.0152153	-0.0154212	-0.000753613	2	-0.00028894	1.16216e-08
2	0	0	0	1	94.8234	-0.0185474	-0.0187355	-0.000761508	2	-0.000289071	1.42672e-08
2	0	0	1	1	94.99	-0.0218794	-0.022056	-0.000770099	2	-0.000289204	1.69853e-08
2	0	0	0	1	95.1566	-0.0252115	-0.0253765	-0.000777978	2	-0.000289338	1.97424e-08
2	0	0	1	1	95.3232	-0.0285436	-0.0287154	-0.000786158	2	-0.000289473	2.25748e-08
2	0	0	0	1	95.4898	-0.0318756	-0.0320549	-0.000794429	2	-0.00028961	2.54654e-08
2	0	0	0	1	95.6565	-0.0352095	-0.0354047	-0.000802053	2	-0.000289748	2.83964e-08
2	0	0	1	1	95.8231	-0.0385415	-0.0387256	-0.00081004	2	-0.000289888	3.13693e-08
2	0	0	0	1	95.9897	-0.0418736	-0.042083	-0.000817969	2	-0.000290029	3.44226e-08
2	0	0	1	1	96.1563	-0.0452057	-0.0453939	-0.000825294	2	-0.000290171	3.74633e-08
2	0	0	0	1	96.3229	-0.0485377	-0.0487394	-0.000833409	2	-0.000290314	4.06198e-08
2	0	0	1	1	96.4895	-0.0518698	-0.0520653	-0.000840363	2	-0.000290459	4.37538e-08
2	0	0	0	1	96.6561	-0.0552014	-0.0554165	-0.000848159	2	-0.000290605	4.7002e-08
2	0	0	1	1	96.8227	-0.0585335	-0.0587514	-0.00085604	2	-0.000290752	5.02935e-08
2	0	0	0	1	96.9893	-0.0618655	-0.0620583	-0.000863271	2	-0.0002909	5.35731e-08
2	0	0	1	1	97.1559	-0.0651976	-0.0653974	-0.000870951	2	-0.00029105	5.6958e-08
2	0	0	0	1	97.3225	-0.0685297	-0.0687198	-0.000878507	2	-0.000291201	6.03708e-08
2	0	0	1	1	97.5058	-0.0721953	-0.0723738	-0.00088647	2	-0.00029137	6.41572e-08
2	0	0	0	1	97.689	-0.0758593	-0.0760367	-0.000894826	2	-0.000291541	6.80396e-08
2	0	0	1	1	97.8556	-0.0791914	-0.0793667	-0.000902522	2	-0.000291695	7.16302e-08
2	0	0	0	1	98.0222	-0.0825234	-0.0826732	-0.000910308	2	-0.000291851	7.5258e-08
2	0	0	1	1	98.1888	-0.0858555	-0.0860282	-0.000918171	2	-0.000292009	7.89886e-08
2	0	0	0	1	98.3554	-0.0891876	-0.0893544	-0.000926322	2	-0.000292167	8.2771e-08
2	0	0	1	1	98.522	-0.0925196	-0.0926592	-0.000934379	2	-0.000292327	8.65788e-08
2	0	0	0	1	98.6886	-0.0958512	-0.096015	-0.00094333	2	-0.000292489	9.05738e-08
2	0	0	1	1	98.8552	-0.0991833	-0.0993385	-0.000951815	2	-0.000292652	9.45518e-08
2	0	0	0	1	99.0218	-0.102515	-0.10267	-0.000960691	2	-0.000292816	9.86343e-08
2	0	0	1	1	99.1884	-0.105847	-0.105991	-0.000969764	2	-0.000292982	1.02787e-07
2	0	0	0	1	99.355	-0.109179	-0.10933	-0.000979536	2	-0.00029315	1.07093e-07
2	0	0	1	1	99.5216	-0.112512	-0.112639	-0.000989644	2	-0.000293319	1.11472e-07
2	0	0	0	1	99.6882	-0.115844	-0.11598	-0.00100024	2	-0.00029349	1.16008e-07
2	0	0	0	1	99.8549	-0.119177	-0.119313	-0.00101142	2	-0.000293663	1.20675e-07
2	0	0	1	1	100.021	-0.122509	-0.12264	-0.00102253	2	-0.000293837	1.25404e-07
2	0	0	0	1	100.188	-0.125842	-0.126003	-0.00103563	2	-0.000294014	1.30492e-07
2	0	0	1	1	100.355	-0.129174	-0.129349	-0.00104873	2	-0.000294193	1.35653e-07
2	0	0	0	1	100.521	-0.132506	-0.13268	-0.00106287	2	-0.000294374	1.41022e-07
2	0	0	1	1	100.688	-0.135838	-0.136012	-0.00107841	2	-0.000294558	1.46676e-07
2	0	0	0	1	100.854	-0.139169	-0.139349	-0.00109423	2	-0.000294744	1.5248e-07
2	0	0	1	1	101.021	-0.142501	-0.142676	-0.00111195	2	-0.000294933	1.58648e-07
2	0	0	0	1	101.188	-0.145834	-0.146016	-0.00113061	2	-0.000295125	1.65088e-07
2	0	0	1	1	101.354	-0.149166	-0.149348	-0.00115086	2	-0.00029532	1.71879e-07
2	0	0	0	1	101.521	-0.152498	-0.152681	-0.00117286	2	-0.000295519	1.79073e-07
2	0	0	1	1	101.687	-0.15583	-0.155997	-0.00119639	2	-0.000295722	1.86633e-07
2	0	0	0	1	101.854	-0.159161	-0.159346	-0.00122248	2	-0.000295929	1.94798e-07
2	0	0	1	1	102.021	-0.162493	-0.162681	-0.00124996	2	-0.00029614	2.03346e-07
2	0	0	0	1	102.187	-0.165825	-0.166024	-0.00127928	2	-0.000296356	2.12391e-07
2	0	0	1	1	102.354	-0.169158	-0.169364	-0.00131105	2	-0.000296578	2.22044e-07
2	0	0	0	1	102.52	-0.17249	-0.172686	-0.00134395	2	-0.000296804	2.32082e-07
2	0	0	1	1	102.687	-0.175822	-0.176023	-0.00137875	2	-0.000297036	2.42693e-07
2	0	0	0	1	102.854	-0.179155	-0.179354	-0.00141624	2	-0.000297275	2.54008e-07
2	0	0	1	1	103.02	-0.182488	-0.182679	-0.00145548	2	-0.00029752	2.65885e-07
2	0	0	0	1	103.187	-0.18582	-0.186027	-0.00149669	2	-0.000297771	2.78425e-07
2	0	0	1	1	103.354	-0.189152	-0.18935	-0.00154026	2	-0.00029803	2.91648e-07
2	0	0	0	1	103.52	-0.192484	-0.19267	-0.00158449	2	-0.000298296	3.05284e-07
2	0	0	1	1	103.687	-0.195816	-0.195997	-0.00163031	2	-0.000298569	3.19536e-07
2	0	0	0	1	103.853	-0.199148	-0.199319	-0.00167807	2	-0.00029885	3.34471e-07
2	0	0	1	1	104.02	-0.202479	-0.202655	-0.00172778	2	-0.00029914	3.50144e-07
2	0	0	0	1	104.187	-0.205812	-0.205987	-0.00177849	2	-0.000299437	3.66346e-07
2	0	0	1	1	104.353	-0.209144	-0.209325	-0.00183064	2	-0.000299744	3.83199e-07
2	0	0	0	1	104.52	-0.212476	-0.212672	-0.00188422	2	-0.000300059	4.0072e-07
2	0	0	1	1	104.686	-0.215808	-0.216016	-0.00193927	2	-0.000300383	4.18913e-07
2	0	0	0	1	104.853	-0.21914	-0.219316	-0.00199415	2	-0.000300716	4.37349e-07
2	0	0	1	1	105.02	-0.222472	-0.222665	-0.00205107	2	-0.000301059	4.567e-07
2	0	0	0	1	105.186	-0.225803	-0.22602	-0.00210841	2	-0.000301411	4.76543e-07
2	0	0	1	1	105.353	-0.229136	-0.229324	-0.00216681	2	-0.000301773	4.96903e-07
2	0	0	0	1	105.519	-0.232468	-0.232668	-0.00222587	2	-0.000302145	5.17889e-07
2	0	0	1	1	105.686	-0.2358	-0.235984	-0.00228472	2	-0.000302526	5.39158e-07
2	0	0	0	1	105.853	-0.239132	-0.239314	-0.00234459	2	-0.000302918	5.61094e-07
2	0	0	1	1	106.019	-0.242464	-0.242624	-0.00240512	2	-0.000303319	5.83539e-07
2	0	0	0	1	106.186	-0.245795	-0.245978	-0.00246471	2	-0.000303731	6.06264e-07
2	0	0	1	1	106.352	-0.249127	-0.249306	-0.00252577	2	-0.000304152	6.2969e-07
2	0	0	0	1	106.519	-0.25246	-0.252655	-0.0025873	2	-0.000304584	6.53696e-07
2	0	0	1	1	106.686	-0.255792	-0.255953	-0.00264785	2	-0.000305026	6.77725e-07
2	0	0	0	1	106.852	-0.259124	-0.259284	-0.00270806	2	-0.000305478	7.02157e-07
2	0	0	1	1	107.019	-0.262456	-0.262619	-0.0027691	2	-0.00030594	7.27217e-07
2	0	0	0	1	107.185	-0.265788	-0.265955	-0.00282944	2	-0.000306412	7.52501e-07
2	0	0	1	1	107.352	-0.269119	-0.269291	-0.00288998	2	-0.000306894	7.78244e-07
2	0	0	0	1	107.519	-0.272451	-0.272609	-0.00295002	2	-0.000307387	8.04202e-07
2	0	0	1	1	107.685	-0.275784	-0.275948	-0.00301039	2	-0.000307889	8.30712e-07
2	0	0	0	1	107.852	-0.279116	-0.279275	-0.00307062	2	-0.000308401	8.57546e-07
2	0	0	1	1	108.018	-0.282448	-0.28258	-0.00312974	2	-0.000308924	8.84402e-07
2	0	0	0	1	108.185	-0.28578	-0.28594	-0.00319027	2	-0.000309456	9.12227e-07
2	0	0	1	1	108.352	-0.289111	-0.28927	-0.00325001	2	-0.000309998	9.4013e-07
2	0	0	0	1	108.518	-0.292443	-0.292599	-0.00330878	2	-0.000310551	9.68145e-07
2	0	0	1	1	108.685	-0.295775	-0.295945	-0.00336922	2	-0.000311113	9.97104e-07
2	0	0	0	1	108.851	-0.299108	-0.299297	-0.00342837	2	-0.000311685	1.0261e-06
2	0	0	1	1	109.018	-0.30244	-0.302633	-0.0034889	2	-0.000312267	1.05586e-06
2	0	0	0	1	109.185	-0.305772	-0.305953	-0.00354668	2	-0.000312859	1.08512e-06
2	0	0	1	1	109.351	-0.309103	-0.309305	-0.00360622	2	-0.000313461	1.11542e-06
2	0	0	0	1	109.518	-0.312435	-0.312626	-0.00366453	2	-0.000314072	1.14563e-06
2	0	0	1	1	109.684	-0.315767	-0.315949	-0.00372238	2	-0.000314693	1.17608e-06
2	0	0	0	1	109.851	-0.319099	-0.319276	-0.0037821	2	-0.000315324	1.20753e-06
2	0	0	1	1	110.018	-0.322431	-0.322603	-0.00384028	2	-0.000315965	1.23888e-06
2	0	0	0	1	110.184	-0.325764	-0.325941	-0.00390004	2	-0.000316616	1.27118e-06
2	0	0	1	1	110.351	-0.329096	-0.329265	-0.0039606	2	-0.000317277	1.30409e-06
2	0	0	1	1	110.517	-0.332429	-0.332619	-0.00401845	2	-0.000317948	1.33661e-06
2	0	0	0	1	110.684	-0.335762	-0.335941	-0.00407743	2	-0.000318628	1.36977e-06
2	0	0	1	1	110.851	-0.339094	-0.339275	-0.00413686	2	-0.000319318	1.40354e-06
2	0	0	0	1	111.017	-0.342426	-0.342649	-0.00419486	2	-0.000320018	1.43737e-06
2	0	0	1	1	111.184	-0.345758	-0.345969	-0.00425181	2	-0.000320728	1.47099e-06
2	0	0	0	1	111.35	-0.34909	-0.349281	-0.00431068	2	-0.000321447	1.50564e-06
2	0	0	1	1	111.517	-0.352421	-0.35263	-0.00437017	2	-0.000322176	1.54105e-06
2	0	0	0	1	111.684	-0.355753	-0.35597	-0.00442838	2	-0.000322915	1.57637e-06
2	0	0	1	1	111.85	-0.359085	-0.359289	-0.00448615	2	-0.000323664	1.61183e-06
2	0	0	0	1	112.017	-0.362418	-0.362607	-0.00454338	2	-0.000324422	1.64746e-06
2	0	0	1	1	112.183	-0.36575	-0.365945	-0.00460167	2	-0.000325189	1.68396e-06
2	0	0	0	1	112.35	-0.369082	-0.369271	-0.00465837	2	-0.000325967	1.7202e-06
2	0	0	1	1	112.517	-0.372413	-0.37263	-0.00471637	2	-0.000326754	1.75746e-06
2	0	0	0	1	112.683	-0.375745	-0.375959	-0.00477262	2	-0.00032755	1.79431e-06
2	0	0	1	1	112.85	-0.379077	-0.379287	-0.00482901	2	-0.000328356	1.83158e-06
2	0	0	0	1	113.016	-0.38241	-0.382621	-0.00488672	2	-0.000329171	1.86976e-06
2	0	0	1	1	113.183	-0.385742	-0.385977	-0.00494295	2	-0.000329996	1.90787e-06
2	0	0	0	1	113.35	-0.389074	-0.3893	-0.00499797	2	-0.00033083	1.94571e-06
2	0	0	1	1	113.516	-0.392408	-0.392643	-0.00505328	2	-0.000331674	1.98413e-06
2	0	0	0	1	113.683	-0.39574	-0.395967	-0.00510809	2	-0.000332527	2.02263e-06
2	0	0	1	1	113.85	-0.399072	-0.39929	-0.00516126	2	-0.000333388	2.06084e-06
2	0	0	0	1	114.016	-0.402404	-0.402636	-0.00521529	2	-0.000334258	2.09986e-06
2	0	0	1	1	114.183	-0.405736	-0.405947	-0.00526692	2	-0.000335138	2.13809e-06
2	0	0	0	1	114.349	-0.409068	-0.409276	-0.00532054	2	-0.000336025	2.17757e-06
2	0	0	1	1	114.516	-0.4124	-0.412616	-0.00537182	2	-0.000336922	2.2165e-06
2	0	0	0	1	114.683	-0.415732	-0.415954	-0.00542478	2	-0.000337827	2.25646e-06
2	0	0	1	1	114.849	-0.419064	-0.419281	-0.00547285	2	-0.000338741	2.29466e-06
2	0	0	0	1	115.016	-0.422396	-0.422621	-0.00552256	2	-0.000339663	2.33395e-06
2	0	0	1	1	115.182	-0.425728	-0.425934	-0.00556974	2	-0.000340593	2.37234e-06
2	0	0	0	1	115.349	-0.42906	-0.429252	-0.00561753	2	-0.000341531	2.41134e-06
2	0	0	1	1	115.516	-0.432392	-0.432576	-0.00566455	2	-0.000342477	2.45034e-06
2	0	0	0	1	115.682	-0.435723	-0.435929	-0.00571201	2	-0.000343431	2.49003e-06
2	0	0	1	1	115.849	-0.439055	-0.439268	-0.00575858	2	-0.000344392	2.52956e-06
2	0	0	0	1	116.015	-0.442388	-0.442589	-0.00580241	2	-0.000345362	2.56808e-06
2	0	0	1	1	116.182	-0.44572	-0.445918	-0.00584646	2	-0.000346338	2.60704e-06
2	0	0	0	1	116.349	-0.449052	-0.449239	-0.00588828	2	-0.000347321	2.64524e-06
2	0	0	1	1	116.515	-0.452384	-0.452567	-0.00593079	2	-0.000348312	2.68408e-06
2	0	0	0	1	116.682	-0.455715	-0.4559	-0.00597097	2	-0.00034931	2.72217e-06
2	0	0	1	1	116.848	-0.459047	-0.459255	-0.00601275	2	-0.000350314	2.76138e-06
2	0	0	0	1	117.015	-0.462379	-0.462587	-0.0060512	2	-0.000351325	2.7992e-06
2	0	0	1	1	117.182	-0.465712	-0.465906	-0.00609085	2	-0.000352343	2.83776e-06
2	0	0	0	1	117.348	-0.469044	-0.469263	-0.00613041	2	-0.000353367	2.87677e-06
2	0	0	1	1	117.515	-0.472376	-0.472591	-0.00616956	2	-0.000354397	2.91568e-06
2	0	0	0	1	117.681	-0.475708	-0.475923	-0.00620535	2	-0.000355434	2.95327e-06
2	0	0	1	1	117.848	-0.47904	-0.479249	-0.0062405	2	-0.000356477	2.99075e-06
2	0	0	0	1	118.015	-0.482371	-0.482589	-0.00627804	2	-0.000357526	3.02972e-06
2	0	0	1	1	118.181	-0.485704	-0.485919	-0.00631418	2	-0.000358581	3.06818e-06
2	0	0	0	1	118.348	-0.489036	-0.489256	-0.00634681	2	-0.000359642	3.10521e-06
2	0	0	1	1	118.514	-0.492368	-0.492579	-0.00638271	2	-0.000360709	3.14399e-06
2	0	0	0	1	118.681	-0.4957	-0.495902	-0.0064182	2	-0.000361781	3.1828e-06
2	0	0	1	1	118.848	-0.499032	-0.49926	-0.00645066	2	-0.000362859	3.22056e-06
2	0	0	0	1	119.014	-0.502363	-0.50259	-0.00648773	2	-0.000363943	3.26067e-06
2	0	0	1	1	119.181	-0.505695	-0.505907	-0.00651953	2	-0.000365033	3.29827e-06
2	0	0	0	1	119.347	-0.509027	-0.509241	-0.0065526	2	-0.000366128	3.33686e-06
2	0	0	1	1	119.514	-0.51236	-0.512566	-0.00658831	2	-0.000367229	3.37695e-06
2	0	0	0	1	119.681	-0.515692	-0.515891	-0.00662146	2	-0.000368335	3.41595e-06
2	0	0	1	1	119.847	-0.519024	-0.51924	-0.00665661	2	-0.000369447	3.45638e-06
2	0	0	0	1	120.014	-0.522355	-0.522558	-0.00669082	2	-0.000370565	3.49634e-06
2	0	0	1	1	120.18	-0.525687	-0.525912	-0.00672617	2	-0.000371689	3.53737e-06
2	0	0	0	1	120.347	-0.529019	-0.529232	-0.00676046	2	-0.000372819	3.57785e-06
2	0	0	1	1	120.514	-0.532351	-0.532546	-0.00679601	2	-0.000373954	3.61919e-06
2	0	0	0	1	120.68	-0.535684	-0.535893	-0.0068328	2	-0.000375096	3.66165e-06
2	0	0	1	1	120.847	-0.539016	-0.539212	-0.00686879	2	-0.000376243	3.70374e-06
2	0	0	1	1	121.013	-0.542349	-0.542545	-0.00690614	2	-0.000377398	3.74689e-06
2	0	0	0	1	121.18	-0.545681	-0.545888	-0.00694586	2	-0.000378558	3.79166e-06
2	0	0	1	1	121.347	-0.549014	-0.549222	-0.00698475	2	-0.000379724	3.83618e-06
2	0	0	0	1	121.513	-0.552346	-0.552552	-0.00702313	2	-0.000380897	3.88065e-06
2	0	0	1	1	121.68	-0.555678	-0.555909	-0.00706195	2	-0.000382077	3.9258e-06
2	0	0	0	1	121.846	-0.55901	-0.559244	-0.00710538	2	-0.000383264	3.97364e-06
2	0	0	1	1	122.013	-0.562342	-0.562554	-0.00714774	2	-0.000384457	4.02099e-06
2	0	0	0	1	122.18	-0.565673	-0.565909	-0.00718827	2	-0.000385658	4.0679e-06
2	0	0	1	1	122.346	-0.569005	-0.569233	-0.0072287	2	-0.000386865	4.11481e-06
2	0	0	0	1	122.513	-0.572338	-0.572562	-0.00727263	2	-0.000388079	4.16403e-06
2	0	0	1	1	122.679	-0.57567	-0.575906	-0.00732072	2	-0.000389301	4.21604e-06
2	0	0	0	1	122.846	-0.579002	-0.579207	-0.00736405	2	-0.000390531	4.26531e-06
2	0	0	1	1	123.013	-0.582334	-0.582547	-0.00740907	2	-0.000391768	4.31613e-06
2	0	0	0	1	123.179	-0.585665	-0.585896	-0.0074558	2	-0.000393012	4.36832e-06
2	0	0	1	1	123.346	-0.588997	-0.589231	-0.00750665	2	-0.000394265	4.42316e-06
2	0	0	0	1	123.512	-0.592329	-0.592558	-0.0075512	2	-0.000395525	4.47452e-06
2	0	0	1	1	123.679	-0.595662	-0.595898	-0.0075929	2	-0.000396793	4.52459e-06
2	0	0	0	1	123.829	-0.598661	-0.598876	-0.00764116	2	-0.000397941	4.57611e-06
2	0	0	1	1	123.888	-0.60016	-0.600348	-0.00781096	2	-0.000398392	4.6893e-06