File: TAP_Report/Data/Res_SHU/100 uM RS 10mM SHU_04_CV_C01_2.mpt
EC-Lab ASCII FILE
Nb header lines : 53

Cyclic Voltammetry

Run on channel : 1 (SN 0696)
User :
Electrode connection : standard
Ewe ctrl range : min = -10.00 V, max = 10.00 V
Ewe,I filtering : 50 kHz
Channel : Grounded
Acquisition started on : 05/17/2017 13:04:41
Saved on :
	File : 100 uM RS 10mM SHU_04_CV_C01.mpr
	Directory : \\userfs\st659\w2k\EC-Lab\Data\ITO Characterisation 17-5-17\
	Host : 144.32.136.43
Device : SP-300 (SN 0182)
Address : USB
EC-Lab for windows v10.44 (software)
Internet server v10.44 (firmware)
Command interpretor v10.44 (firmware)
Electrode material :
Initial state :
Electrolyte :
Comments :
Cable : standard
Electrode surface area : 0.001 cm²
Characteristic mass : 0.001 g
Equivalent Weight : 0.000 g/eq.
Density : 0.000 g/cm3
Ei (V)              0.000
vs.                 Eoc
dE/dt               250.000
dE/dt unit          mV/s
E1 (V)              0.100
vs.                 Ref
Step percent        50
N                   10
E range min (V)     -10.000
E range max (V)     10.000
I Range             Auto
I Range min         Unset
I Range max         Unset
I Range init        Unset
Bandwidth           8
E2 (V)              -0.600
vs.                 Ref
nc cycles           2
Reverse Scan        1
Ef (V)              0.000
vs.                 Eoc

mode	ox/red	error	control changes	counter inc.	time/s	control/V	Ewe/V	<I>/mA	cycle number	(Q-Qo)/C	P/W
2	1	0	0	1	401.17	-0.60016	-0.600417	-0.0102251	2	-1.29362e-05	6.13934e-06
2	1	0	1	1	401.177	-0.598311	-0.598542	-0.00923174	2	-1.30051e-05	5.52558e-06
2	1	0	1	1	401.19	-0.595012	-0.595247	-0.00867514	2	-1.31222e-05	5.16385e-06
2	1	0	0	1	401.204	-0.591664	-0.591878	-0.00832346	2	-1.32353e-05	4.92647e-06
2	1	0	1	1	401.217	-0.588315	-0.588523	-0.00803366	2	-1.3344e-05	4.72799e-06
2	1	0	1	1	401.23	-0.585016	-0.585225	-0.00777131	2	-1.34475e-05	4.54796e-06
2	1	0	0	1	401.244	-0.581667	-0.581888	-0.00753007	2	-1.35492e-05	4.38166e-06
2	1	0	1	1	401.257	-0.578319	-0.578529	-0.00731056	2	-1.36479e-05	4.22937e-06
2	1	0	1	1	401.27	-0.57502	-0.575253	-0.00711036	2	-1.37423e-05	4.09025e-06
2	1	0	0	1	401.284	-0.571671	-0.571895	-0.00691523	2	-1.38355e-05	3.95479e-06
2	1	0	1	1	401.297	-0.568333	-0.56857	-0.00672806	2	-1.39255e-05	3.82537e-06
2	1	0	1	1	401.31	-0.565007	-0.565226	-0.00655802	2	-1.4013e-05	3.70676e-06
2	1	0	0	1	401.324	-0.561658	-0.561881	-0.00639456	2	-1.4099e-05	3.59298e-06
2	1	0	0	1	401.337	-0.55836	-0.558579	-0.00623969	2	-1.41816e-05	3.48536e-06
2	1	0	1	1	401.35	-0.555011	-0.555241	-0.00608952	2	-1.42634e-05	3.38115e-06
2	1	0	0	1	401.364	-0.551662	-0.551857	-0.00593282	2	-1.43432e-05	3.27407e-06
2	1	0	0	1	401.377	-0.548363	-0.548568	-0.00580649	2	-1.442e-05	3.18526e-06
2	1	0	1	1	401.39	-0.545015	-0.545214	-0.00566965	2	-1.44961e-05	3.09118e-06
2	1	0	0	1	401.404	-0.541666	-0.541856	-0.00554165	2	-1.45704e-05	3.00277e-06
2	1	0	0	1	401.417	-0.538367	-0.538563	-0.00542049	2	-1.4642e-05	2.91928e-06
2	1	0	1	1	401.43	-0.535018	-0.535222	-0.0053012	2	-1.47131e-05	2.83732e-06
2	1	0	0	1	401.444	-0.53167	-0.531888	-0.00519053	2	-1.47826e-05	2.76078e-06
2	1	0	0	1	401.457	-0.528371	-0.528589	-0.00507524	2	-1.48496e-05	2.68272e-06
2	1	0	1	1	401.47	-0.525011	-0.525237	-0.00496396	2	-1.49161e-05	2.60725e-06
2	1	0	1	1	401.484	-0.521707	-0.521904	-0.0048629	2	-1.49802e-05	2.53797e-06
2	1	0	0	1	401.497	-0.518358	-0.518569	-0.00475723	2	-1.50439e-05	2.46695e-06
2	1	0	1	1	401.51	-0.515009	-0.515228	-0.00466219	2	-1.51063e-05	2.40209e-06
2	1	0	1	1	401.524	-0.511711	-0.511927	-0.00456914	2	-1.51665e-05	2.33907e-06
2	1	0	0	1	401.537	-0.508362	-0.508589	-0.00446658	2	-1.52262e-05	2.27165e-06
2	1	0	1	1	401.55	-0.505013	-0.505228	-0.00438084	2	-1.52848e-05	2.21332e-06
2	1	0	1	1	401.564	-0.501715	-0.501931	-0.00428669	2	-1.53412e-05	2.15162e-06
2	1	0	0	1	401.577	-0.498366	-0.498568	-0.00419707	2	-1.53973e-05	2.09253e-06
2	1	0	1	1	401.59	-0.495017	-0.495219	-0.00411507	2	-1.54522e-05	2.03786e-06
2	1	0	1	1	401.604	-0.491718	-0.491925	-0.00402863	2	-1.55052e-05	1.98179e-06
2	1	0	0	1	401.617	-0.48837	-0.488589	-0.00395053	2	-1.55579e-05	1.93018e-06
2	1	0	1	1	401.63	-0.485021	-0.485234	-0.00386897	2	-1.56096e-05	1.87735e-06
2	1	0	1	1	401.644	-0.481711	-0.481925	-0.0037883	2	-1.56594e-05	1.82567e-06
2	1	0	0	1	401.657	-0.478357	-0.478569	-0.00370974	2	-1.57089e-05	1.77537e-06
2	1	0	0	1	401.67	-0.475058	-0.475266	-0.00363786	2	-1.57566e-05	1.72895e-06
2	1	0	1	1	401.684	-0.471709	-0.47192	-0.00356486	2	-1.58041e-05	1.68233e-06
2	1	0	0	1	401.697	-0.468361	-0.468555	-0.00348463	2	-1.58506e-05	1.63274e-06
2	1	0	0	1	401.71	-0.465062	-0.465256	-0.00341384	2	-1.58954e-05	1.58831e-06
2	1	0	1	1	401.724	-0.461713	-0.461915	-0.00334768	2	-1.59399e-05	1.54634e-06
2	1	0	0	1	401.737	-0.458364	-0.458557	-0.00327606	2	-1.59835e-05	1.50226e-06
2	1	0	0	1	401.75	-0.455066	-0.455242	-0.00320631	2	-1.60256e-05	1.45965e-06
2	1	0	1	1	401.764	-0.451717	-0.451892	-0.00314134	2	-1.60673e-05	1.41955e-06
2	1	0	0	1	401.777	-0.448368	-0.44855	-0.00307504	2	-1.61082e-05	1.37931e-06
2	1	0	0	1	401.79	-0.445069	-0.445262	-0.00300977	2	-1.61477e-05	1.34014e-06
2	1	0	1	1	401.804	-0.441721	-0.441923	-0.0029476	2	-1.61868e-05	1.30261e-06
2	1	0	0	1	401.817	-0.438389	-0.438591	-0.00287741	2	-1.62248e-05	1.262e-06
2	1	0	0	1	401.83	-0.435057	-0.435252	-0.00281923	2	-1.62619e-05	1.22708e-06
2	1	0	1	1	401.844	-0.431708	-0.431921	-0.00275882	2	-1.62985e-05	1.19159e-06
2	1	0	1	1	401.857	-0.428409	-0.428615	-0.00269517	2	-1.63338e-05	1.15519e-06
2	1	0	0	1	401.87	-0.42506	-0.425274	-0.00263937	2	-1.63688e-05	1.12245e-06
2	1	0	1	1	401.884	-0.421712	-0.421943	-0.00257818	2	-1.6403e-05	1.08785e-06
2	1	0	1	1	401.897	-0.418413	-0.418646	-0.00252257	2	-1.64359e-05	1.05606e-06
2	1	0	0	1	401.91	-0.415064	-0.415268	-0.00246122	2	-1.64685e-05	1.02207e-06
2	1	0	1	1	401.924	-0.411716	-0.411915	-0.00240499	2	-1.65004e-05	9.90651e-07
2	1	0	1	1	401.937	-0.408417	-0.408623	-0.00235244	2	-1.6531e-05	9.61261e-07
2	1	0	0	1	401.95	-0.405068	-0.405274	-0.00229556	2	-1.65614e-05	9.30332e-07
2	1	0	1	1	401.964	-0.401719	-0.401953	-0.00223985	2	-1.65911e-05	9.00313e-07
2	1	0	1	1	401.977	-0.398421	-0.398639	-0.00218836	2	-1.66196e-05	8.72364e-07
2	1	0	0	1	401.99	-0.395066	-0.395298	-0.00213272	2	-1.66477e-05	8.43059e-07
2	1	0	0	1	402.003	-0.391756	-0.391969	-0.00208019	2	-1.66748e-05	8.15369e-07
2	1	0	1	1	402.017	-0.388408	-0.388631	-0.00203126	2	-1.67016e-05	7.8941e-07
2	1	0	0	1	402.03	-0.385059	-0.385287	-0.00197923	2	-1.67277e-05	7.62572e-07
2	1	0	0	1	402.043	-0.38176	-0.381959	-0.00192522	2	-1.67528e-05	7.35357e-07
2	1	0	1	1	402.057	-0.378412	-0.378603	-0.00187852	2	-1.67775e-05	7.11216e-07
2	1	0	0	1	402.07	-0.375063	-0.37526	-0.00182949	2	-1.68016e-05	6.86536e-07
2	1	0	0	1	402.083	-0.371764	-0.371959	-0.00178002	2	-1.68247e-05	6.62097e-07
2	1	0	1	1	402.097	-0.368415	-0.368599	-0.00173398	2	-1.68475e-05	6.39144e-07
2	1	0	0	1	402.11	-0.365067	-0.365262	-0.00168921	2	-1.68697e-05	6.17005e-07
2	1	0	0	1	402.123	-0.361768	-0.361981	-0.00164368	2	-1.68909e-05	5.94979e-07
2	1	0	1	1	402.137	-0.358419	-0.358624	-0.00159769	2	-1.69119e-05	5.72969e-07
2	1	0	0	1	402.15	-0.35507	-0.355294	-0.00155466	2	-1.69322e-05	5.52361e-07
2	1	0	0	1	402.163	-0.351766	-0.351982	-0.00150281	2	-1.69517e-05	5.28961e-07
2	1	0	1	1	402.177	-0.348406	-0.348597	-0.00145976	2	-1.69708e-05	5.08869e-07
2	1	0	1	1	402.19	-0.345108	-0.345327	-0.00142047	2	-1.69891e-05	4.90526e-07
2	1	0	0	1	402.203	-0.341759	-0.341976	-0.00137541	2	-1.7007e-05	4.70356e-07
2	1	0	1	1	402.217	-0.33841	-0.338587	-0.00133218	2	-1.70244e-05	4.5106e-07
2	1	0	1	1	402.23	-0.335111	-0.335291	-0.00129421	2	-1.7041e-05	4.33937e-07
2	1	0	0	1	402.243	-0.331763	-0.331951	-0.00125174	2	-1.70573e-05	4.15518e-07
2	1	0	1	1	402.257	-0.328414	-0.328595	-0.00120956	2	-1.70731e-05	3.97456e-07
2	1	0	1	1	402.27	-0.325115	-0.325279	-0.00117126	2	-1.7088e-05	3.80988e-07
2	1	0	0	1	402.283	-0.321766	-0.321946	-0.00113119	2	-1.71027e-05	3.64182e-07
2	1	0	1	1	402.297	-0.318418	-0.318607	-0.00109503	2	-1.71169e-05	3.48883e-07
2	1	0	1	1	402.31	-0.315119	-0.315309	-0.00105487	2	-1.71303e-05	3.32611e-07
2	1	0	0	1	402.323	-0.31177	-0.311967	-0.00101673	2	-1.71434e-05	3.17187e-07
2	1	0	1	1	402.337	-0.308422	-0.308609	-0.000978342	2	-1.7156e-05	3.01925e-07
2	1	0	1	1	402.35	-0.305106	-0.305285	-0.000934784	2	-1.71679e-05	2.85375e-07
2	1	0	0	1	402.363	-0.301757	-0.301966	-0.000904264	2	-1.71795e-05	2.73057e-07
2	1	0	0	1	402.377	-0.298459	-0.298656	-0.000867356	2	-1.71904e-05	2.59041e-07
2	1	0	1	1	402.39	-0.29511	-0.295265	-0.000826312	2	-1.7201e-05	2.43981e-07
2	1	0	0	1	402.403	-0.291761	-0.291919	-0.000794507	2	-1.72111e-05	2.31932e-07
2	1	0	0	1	402.417	-0.288462	-0.288618	-0.000759499	2	-1.72207e-05	2.19205e-07
2	1	0	1	1	402.43	-0.285114	-0.28528	-0.000719539	2	-1.72298e-05	2.0527e-07
2	1	0	0	1	402.443	-0.281765	-0.281907	-0.000689539	2	-1.72385e-05	1.94386e-07
2	1	0	0	1	402.457	-0.278466	-0.278618	-0.000653965	2	-1.72466e-05	1.82206e-07
2	1	0	1	1	402.47	-0.275118	-0.275295	-0.000621777	2	-1.72544e-05	1.71172e-07
2	1	0	0	1	402.483	-0.271769	-0.271925	-0.000586113	2	-1.72618e-05	1.59379e-07
2	1	0	0	1	402.497	-0.26847	-0.268646	-0.000552986	2	-1.72686e-05	1.48557e-07
2	1	0	1	1	402.51	-0.265121	-0.265285	-0.000517457	2	-1.7275e-05	1.37274e-07
2	1	0	0	1	402.523	-0.261784	-0.261926	-0.000479823	2	-1.72809e-05	1.25678e-07
2	1	0	0	1	402.537	-0.258457	-0.258622	-0.000453839	2	-1.72863e-05	1.17373e-07
2	1	0	1	1	402.55	-0.255109	-0.255286	-0.00042042	2	-1.72915e-05	1.07327e-07
2	1	0	1	1	402.579	-0.247949	-0.248103	-0.000320563	2	-1.73018e-05	7.95326e-08
2	1	0	1	1	402.607	-0.240814	-0.240916	-0.000228821	2	-1.73112e-05	5.51266e-08
2	1	0	0	1	402.621	-0.237465	-0.237576	-0.000197891	2	-1.7314e-05	4.70142e-08
2	1	0	1	1	402.634	-0.234117	-0.234222	-0.000165622	2	-1.73164e-05	3.87923e-08
2	1	0	1	1	402.647	-0.230818	-0.230926	-0.000134337	2	-1.73183e-05	3.10218e-08
2	1	0	0	1	402.661	-0.227469	-0.227586	-0.000102467	2	-1.73198e-05	2.33202e-08
2	1	0	1	1	402.674	-0.22412	-0.224235	-6.72021e-05	2	-1.73208e-05	1.50691e-08
2	1	0	1	1	402.687	-0.220822	-0.220912	-3.42676e-05	2	-1.73214e-05	7.57011e-09
2	1	0	0	1	402.701	-0.217456	-0.217559	-2.57176e-07	2	-1.73216e-05	5.59509e-11
2	1	0	0	1	402.714	-0.214157	-0.214264	2.93811e-05	2	-1.73213e-05	6.2953e-09
2	1	0	1	1	402.727	-0.210809	-0.210892	6.75272e-05	2	-1.73206e-05	1.4241e-08
2	1	0	0	1	402.741	-0.20746	-0.207556	9.49442e-05	2	-1.73194e-05	1.97062e-08
2	1	0	0	1	402.754	-0.204161	-0.204225	0.000129645	2	-1.73179e-05	2.64767e-08
2	1	0	1	1	402.767	-0.200813	-0.200888	0.00016191	2	-1.73158e-05	3.25258e-08
2	1	0	0	1	402.781	-0.197464	-0.19753	0.000194566	2	-1.73134e-05	3.84326e-08
2	1	0	0	1	402.794	-0.194165	-0.194246	0.000225415	2	-1.73105e-05	4.3786e-08
2	1	0	1	1	402.807	-0.190816	-0.190899	0.000256008	2	-1.73072e-05	4.88716e-08
2	1	0	0	1	402.821	-0.187468	-0.18756	0.000292828	2	-1.73035e-05	5.4923e-08
2	1	0	0	1	402.834	-0.184169	-0.184249	0.000323539	2	-1.72993e-05	5.96117e-08
2	1	0	1	1	402.847	-0.18082	-0.180898	0.000358515	2	-1.72947e-05	6.48549e-08
2	1	0	0	1	402.861	-0.177471	-0.177551	0.000393353	2	-1.72895e-05	6.98401e-08
2	1	0	0	1	402.874	-0.174156	-0.174237	0.000426611	2	-1.72841e-05	7.43315e-08
2	1	0	1	1	402.887	-0.170807	-0.170879	0.000458213	2	-1.72781e-05	7.82989e-08
2	1	0	1	1	402.9	-0.167509	-0.167588	0.000494128	2	-1.72717e-05	8.281e-08
2	1	0	0	1	402.914	-0.16416	-0.164235	0.00052755	2	-1.72648e-05	8.66423e-08
2	1	0	1	1	402.927	-0.160811	-0.160884	0.000561227	2	-1.72574e-05	9.02923e-08
2	1	0	1	1	402.94	-0.157512	-0.157565	0.0005966	2	-1.72497e-05	9.40034e-08
2	1	0	0	1	402.954	-0.154164	-0.154229	0.000630049	2	-1.72414e-05	9.71719e-08
2	1	0	1	1	402.967	-0.150815	-0.15088	0.000664457	2	-1.72326e-05	1.00253e-07
2	1	0	1	1	402.98	-0.147516	-0.147577	0.000696924	2	-1.72236e-05	1.0285e-07
2	1	0	0	1	402.994	-0.144168	-0.144215	0.000734417	2	-1.72139e-05	1.05914e-07
2	1	0	1	1	403.007	-0.140819	-0.140877	0.000767355	2	-1.72038e-05	1.08103e-07
2	1	0	1	1	403.02	-0.13752	-0.137567	0.000801985	2	-1.71933e-05	1.10326e-07
2	1	0	0	1	403.034	-0.134171	-0.134204	0.000837676	2	-1.71823e-05	1.12419e-07
2	1	0	1	1	403.047	-0.130834	-0.130856	0.000870373	2	-1.71708e-05	1.13894e-07
2	1	0	1	1	403.06	-0.127507	-0.127554	0.000904028	2	-1.71589e-05	1.15312e-07
2	1	0	0	1	403.074	-0.124158	-0.12418	0.000941512	2	-1.71465e-05	1.16917e-07
2	1	0	0	1	403.087	-0.12086	-0.120865	0.000973319	2	-1.71338e-05	1.1764e-07
2	1	0	1	1	403.116	-0.113675	-0.113754	0.00102515	2	-1.71044e-05	1.16615e-07
2	1	0	1	1	403.144	-0.106515	-0.10662	0.00107024	2	-1.7074e-05	1.14108e-07
2	1	0	0	1	403.158	-0.103166	-0.103277	0.00110786	2	-1.70587e-05	1.14416e-07
2	1	0	0	1	403.171	-0.0998677	-0.0999959	0.0011393	2	-1.70431e-05	1.13925e-07
2	1	0	1	1	403.184	-0.096519	-0.0966383	0.00117892	2	-1.70268e-05	1.13929e-07
2	1	0	0	1	403.198	-0.0931703	-0.0932822	0.00121304	2	-1.70101e-05	1.13155e-07
2	1	0	0	1	403.211	-0.0898715	-0.0899768	0.00124969	2	-1.6993e-05	1.12443e-07
2	1	0	1	1	403.224	-0.0865061	-0.0866327	0.00128597	2	-1.69753e-05	1.11407e-07
2	1	0	1	1	403.238	-0.0832074	-0.0833372	0.00131483	2	-1.69574e-05	1.09575e-07
2	1	0	0	1	403.251	-0.0798587	-0.0799872	0.00135684	2	-1.69387e-05	1.0853e-07
2	1	0	1	1	403.264	-0.0765099	-0.0766554	0.00138955	2	-1.69196e-05	1.06517e-07
2	1	0	1	1	403.278	-0.0732112	-0.073333	0.00142483	2	-1.69003e-05	1.04487e-07
2	1	0	0	1	403.291	-0.0698625	-0.0699886	0.00145624	2	-1.68802e-05	1.0192e-07
2	1	0	1	1	403.304	-0.0665138	-0.0666522	0.00149101	2	-1.68597e-05	9.93787e-08
2	1	0	1	1	403.318	-0.063215	-0.0633542	0.00152412	2	-1.68391e-05	9.65595e-08
2	1	0	0	1	403.331	-0.0598663	-0.0600238	0.00155892	2	-1.68177e-05	9.35724e-08
2	1	0	1	1	403.344	-0.0565176	-0.0566599	0.00159063	2	-1.67958e-05	9.01248e-08
2	1	0	1	1	403.358	-0.0532188	-0.0533695	0.00162483	2	-1.67739e-05	8.67166e-08
2	1	0	0	1	403.371	-0.0498701	-0.0500152	0.00165422	2	-1.67511e-05	8.27361e-08
2	1	0	1	1	403.384	-0.0465214	-0.0466704	0.00168638	2	-1.6728e-05	7.87042e-08
2	1	0	1	1	403.398	-0.043206	-0.0433452	0.00171557	2	-1.67048e-05	7.43619e-08
2	1	0	0	1	403.411	-0.0398573	-0.0399786	0.00174696	2	-1.66809e-05	6.98409e-08
2	1	0	0	1	403.424	-0.0365585	-0.036695	0.00176734	2	-1.6657e-05	6.48527e-08
2	1	0	1	1	403.438	-0.0332098	-0.0333364	0.00179433	2	-1.66323e-05	5.98165e-08
2	1	0	0	1	403.451	-0.0298611	-0.0299702	0.00182244	2	-1.66073e-05	5.46188e-08
2	1	0	0	1	403.464	-0.0265623	-0.0266896	0.00184162	2	-1.65824e-05	4.91521e-08
2	1	0	1	1	403.478	-0.0232136	-0.0233357	0.00186673	2	-1.65568e-05	4.35615e-08
2	1	0	0	1	403.491	-0.0198649	-0.0200136	0.00188642	2	-1.65309e-05	3.7754e-08
2	1	0	0	1	403.504	-0.0165661	-0.0167158	0.00190563	2	-1.65052e-05	3.18542e-08
2	1	0	1	1	403.518	-0.0132174	-0.0133646	0.00192306	2	-1.64787e-05	2.57008e-08
2	1	0	0	1	403.531	-0.00986869	-0.0100172	0.00194421	2	-1.64521e-05	1.94756e-08
2	1	0	0	1	403.544	-0.00656994	-0.00669924	0.00196073	2	-1.64256e-05	1.31354e-08
2	1	0	1	1	403.558	-0.00322122	-0.00337007	0.00197589	2	-1.63985e-05	6.65889e-09
2	1	0	0	1	403.571	0.000129721	-1.60072e-05	0.00199355	2	-1.63714e-05	3.1911e-11
2	1	0	0	1	403.584	0.0034429	0.00333851	0.00200665	2	-1.6344e-05	6.6992e-09
2	1	0	1	1	403.598	0.00679163	0.00669334	0.00201225	2	-1.63163e-05	1.34687e-08
2	1	0	1	1	403.611	0.0100904	0.0099827	0.00202585	2	-1.62889e-05	2.02235e-08
2	1	0	0	1	403.624	0.0134391	0.0133441	0.00203521	2	-1.6261e-05	2.7158e-08
2	1	0	1	1	403.638	0.0167878	0.0167009	0.00204323	2	-1.62329e-05	3.41238e-08
2	1	0	1	1	403.651	0.0200866	0.0199948	0.00205112	2	-1.62051e-05	4.10119e-08
2	1	0	0	1	403.664	0.0234353	0.0233456	0.00205583	2	-1.61769e-05	4.79948e-08
2	1	0	1	1	403.678	0.026784	0.0266835	0.00206094	2	-1.61486e-05	5.49932e-08
2	1	0	1	1	403.691	0.0300827	0.0299686	0.00206783	2	-1.61206e-05	6.19698e-08
2	1	0	0	1	403.704	0.0334315	0.0333217	0.00207337	2	-1.60921e-05	6.90884e-08
2	1	0	1	1	403.718	0.0367802	0.0366908	0.00207649	2	-1.60635e-05	7.61879e-08
2	1	0	1	1	403.731	0.0400789	0.0399535	0.00207653	2	-1.60354e-05	8.29646e-08
2	1	0	0	1	403.744	0.0434388	0.0433522	0.00208478	2	-1.60068e-05	9.03798e-08
2	1	0	0	1	403.757	0.046743	0.0466743	0.00208505	2	-1.59785e-05	9.73182e-08
2	1	0	1	1	403.771	0.0500918	0.0500169	0.00208398	2	-1.59498e-05	1.04234e-07
2	1	0	0	1	403.784	0.0534405	0.0533697	0.00208732	2	-1.59211e-05	1.11399e-07
2	1	0	0	1	403.797	0.0567392	0.0566754	0.00208891	2	-1.58928e-05	1.1839e-07
2	1	0	1	1	403.811	0.060088	0.0600196	0.00208685	2	-1.58641e-05	1.25252e-07
2	1	0	0	1	403.824	0.0634367	0.0633709	0.00208567	2	-1.58354e-05	1.3217e-07
2	1	0	0	1	403.837	0.0667354	0.0666447	0.00208722	2	-1.58071e-05	1.39102e-07
2	1	0	1	1	403.851	0.0700841	0.0699988	0.00208585	2	-1.57784e-05	1.46007e-07
2	1	0	0	1	403.864	0.0734329	0.073352	0.00208782	2	-1.57497e-05	1.53146e-07
2	1	0	0	1	403.877	0.0767316	0.0766433	0.00208755	2	-1.57215e-05	1.59997e-07
2	1	0	1	1	403.891	0.0800803	0.0800038	0.00208624	2	-1.56927e-05	1.66907e-07
2	1	0	0	1	403.904	0.083429	0.0833383	0.00208567	2	-1.56641e-05	1.73817e-07
2	1	0	0	1	403.917	0.0867389	0.0866384	0.00208449	2	-1.56358e-05	1.80597e-07
2	1	0	1	1	403.931	0.0900932	0.0899869	0.00208421	2	-1.56071e-05	1.87552e-07
2	1	0	1	1	403.944	0.0933919	0.0933005	0.0020837	2	-1.55789e-05	1.9441e-07
2	1	0	0	1	403.957	0.0967406	0.0966372	0.00208585	2	-1.55502e-05	2.0157e-07
2	1	0	1	1	403.967	0.0990897	0.0990023	0.00208601	2	-1.55301e-05	2.06519e-07
2	0	0	0	1	403.971	0.0999061	0.0998375	0.002044	2	-1.55221e-05	2.04068e-07
2	0	0	1	1	403.978	0.0980735	0.0979586	0.00145525	2	-1.55113e-05	1.42554e-07
2	0	0	0	1	403.991	0.0947247	0.0945921	0.00124496	2	-1.5494e-05	1.17764e-07
2	0	0	0	1	404.005	0.091426	0.0913033	0.00113014	2	-1.54791e-05	1.03186e-07
2	0	0	1	1	404.018	0.0880773	0.087936	0.0010333	2	-1.54654e-05	9.08641e-08
2	0	0	1	1	404.031	0.0847619	0.084636	0.000948694	2	-1.54531e-05	8.02937e-08
2	0	0	0	1	404.045	0.0814132	0.0812896	0.000873399	2	-1.54416e-05	7.09983e-08
2	0	0	1	1	404.058	0.0780644	0.077953	0.000800916	2	-1.54312e-05	6.24338e-08
2	0	0	1	1	404.071	0.0747657	0.0746432	0.000731772	2	-1.54218e-05	5.46218e-08
2	0	0	0	1	404.085	0.071417	0.0713066	0.000670728	2	-1.54132e-05	4.78274e-08
2	0	0	1	1	404.098	0.0680682	0.0679466	0.000610977	2	-1.54053e-05	4.15138e-08
2	0	0	1	1	404.111	0.0647695	0.0646622	0.000555453	2	-1.53984e-05	3.59168e-08
2	0	0	0	1	404.125	0.0614208	0.0613332	0.000499907	2	-1.53921e-05	3.06609e-08
2	0	0	1	1	404.138	0.0580721	0.0579751	0.000447597	2	-1.53864e-05	2.59495e-08
2	0	0	1	1	404.151	0.0547733	0.0546629	0.000397353	2	-1.53816e-05	2.17204e-08
2	0	0	0	1	404.165	0.0514246	0.0513109	0.000346649	2	-1.53774e-05	1.77869e-08
2	0	0	1	1	404.178	0.0480759	0.0479508	0.000299856	2	-1.53738e-05	1.43783e-08
2	0	0	1	1	404.191	0.0447771	0.0446626	0.000250647	2	-1.53709e-05	1.11945e-08
2	0	0	0	1	404.205	0.0414117	0.0412656	0.000206037	2	-1.53686e-05	8.50223e-09
2	0	0	0	1	404.218	0.038113	0.0379588	0.000166177	2	-1.53669e-05	6.30788e-09
2	0	0	1	1	404.231	0.0347643	0.0346345	0.000120507	2	-1.53658e-05	4.17371e-09
2	0	0	0	1	404.245	0.0314156	0.0312641	7.83489e-05	2	-1.53652e-05	2.44951e-09
2	0	0	0	1	404.258	0.0281168	0.0279575	3.72453e-05	2	-1.53652e-05	1.04129e-09
2	0	0	1	1	404.271	0.0247681	0.0246142	-4.60683e-06	2	-1.53657e-05	1.13393e-10
2	0	0	0	1	404.285	0.0214194	0.0212919	-4.21352e-05	2	-1.53667e-05	8.97136e-10
2	0	0	0	1	404.298	0.0181206	0.0179869	-8.01757e-05	2	-1.53683e-05	1.44211e-09
2	0	0	1	1	404.311	0.0147719	0.0146561	-0.000119068	2	-1.53704e-05	1.74508e-09
2	0	0	0	1	404.325	0.0114232	0.011288	-0.000160456	2	-1.5373e-05	1.81123e-09
2	0	0	0	1	404.353	0.00430017	0.00407373	-0.000279794	2	-1.5381e-05	1.1398e-09
2	0	0	0	1	404.382	-0.00288801	-0.00314143	-0.000368134	2	-1.53901e-05	1.15647e-09
2	0	0	1	1	404.395	-0.00623674	-0.00649724	-0.000402637	2	-1.53953e-05	2.61603e-09
2	0	0	1	1	404.408	-0.00953548	-0.00979643	-0.000438137	2	-1.54009e-05	4.29218e-09
2	0	0	0	1	404.422	-0.0128842	-0.0131524	-0.000473364	2	-1.54071e-05	6.22586e-09
2	0	0	1	1	404.435	-0.0162329	-0.0164913	-0.000504469	2	-1.54138e-05	8.31936e-09
2	0	0	1	1	404.448	-0.0195317	-0.0197893	-0.000537763	2	-1.54207e-05	1.06419e-08
2	0	0	0	1	404.462	-0.0228804	-0.0231331	-0.000573489	2	-1.54282e-05	1.32666e-08
2	0	0	1	1	404.475	-0.0262291	-0.0264773	-0.000605348	2	-1.54362e-05	1.6028e-08
2	0	0	1	1	404.488	-0.0295279	-0.0297783	-0.000639046	2	-1.54445e-05	1.90297e-08
2	0	0	0	1	404.502	-0.0328766	-0.0331448	-0.000671455	2	-1.54534e-05	2.22553e-08
2	0	0	1	1	404.515	-0.0362253	-0.0365038	-0.000703393	2	-1.54627e-05	2.56765e-08
2	0	0	1	1	404.528	-0.039524	-0.0397899	-0.000736658	2	-1.54722e-05	2.93115e-08
2	0	0	0	1	404.542	-0.0428728	-0.0431592	-0.000769497	2	-1.54824e-05	3.32109e-08
2	0	0	0	1	404.555	-0.0461882	-0.0464707	-0.000799938	2	-1.54929e-05	3.71737e-08
2	0	0	1	1	404.568	-0.0495369	-0.0498229	-0.000831803	2	-1.55039e-05	4.14428e-08
2	0	0	0	1	404.582	-0.0528856	-0.0531771	-0.000862824	2	-1.55153e-05	4.58825e-08
2	0	0	0	1	404.595	-0.0561844	-0.0564984	-0.000893272	2	-1.5527e-05	5.04685e-08
2	0	0	1	1	404.608	-0.0595331	-0.0598311	-0.000922595	2	-1.55392e-05	5.51998e-08
2	0	0	0	1	404.622	-0.0628818	-0.0631729	-0.000952121	2	-1.55518e-05	6.01482e-08
2	0	0	0	1	404.635	-0.0661806	-0.0664641	-0.000983978	2	-1.55647e-05	6.53992e-08
2	0	0	1	1	404.664	-0.0733651	-0.0736034	-0.00102299	2	-1.55941e-05	7.52952e-08
2	0	0	1	1	404.692	-0.0805251	-0.0807195	-0.00106306	2	-1.56244e-05	8.58094e-08
2	0	0	0	1	404.706	-0.0838738	-0.0840508	-0.00108893	2	-1.56395e-05	9.15253e-08
2	0	0	0	1	404.719	-0.0871781	-0.0873584	-0.00112321	2	-1.56549e-05	9.81218e-08
2	0	0	1	1	404.732	-0.0905379	-0.0906857	-0.00114714	2	-1.56708e-05	1.04029e-07
2	0	0	1	1	404.746	-0.0938367	-0.0940154	-0.00118027	2	-1.5687e-05	1.10963e-07
2	0	0	0	1	404.759	-0.0971854	-0.0973551	-0.00120927	2	-1.57037e-05	1.17728e-07
2	0	0	1	1	404.772	-0.100534	-0.100692	-0.00123724	2	-1.57208e-05	1.2458e-07
2	0	0	1	1	404.786	-0.103833	-0.103996	-0.0012662	2	-1.57381e-05	1.3168e-07
2	0	0	0	1	404.799	-0.107182	-0.107344	-0.0012927	2	-1.5756e-05	1.38763e-07
2	0	0	1	1	404.812	-0.11053	-0.110679	-0.00132186	2	-1.57743e-05	1.46302e-07
2	0	0	1	1	404.826	-0.113829	-0.113971	-0.00135207	2	-1.57926e-05	1.54098e-07
2	0	0	0	1	404.839	-0.117178	-0.117336	-0.00137943	2	-1.58117e-05	1.61856e-07
2	0	0	1	1	404.852	-0.120526	-0.120683	-0.00140833	2	-1.58311e-05	1.69961e-07
2	0	0	1	1	404.866	-0.123825	-0.123994	-0.00143665	2	-1.58506e-05	1.78135e-07
2	0	0	0	1	404.879	-0.127174	-0.12734	-0.00146716	2	-1.58709e-05	1.86829e-07
2	0	0	1	1	404.892	-0.1305	-0.130686	-0.00149594	2	-1.58913e-05	1.95499e-07
2	0	0	1	1	404.906	-0.133838	-0.134011	-0.0015227	2	-1.59121e-05	2.04058e-07
2	0	0	0	1	404.919	-0.137187	-0.137357	-0.00155176	2	-1.59335e-05	2.13145e-07
2	0	0	0	1	404.932	-0.140486	-0.140667	-0.00158131	2	-1.59549e-05	2.22437e-07
2	0	0	1	1	404.946	-0.143834	-0.144018	-0.00160629	2	-1.5977e-05	2.31335e-07
2	0	0	0	1	404.959	-0.147183	-0.147386	-0.00163744	2	-1.59995e-05	2.41335e-07
2	0	0	0	1	404.972	-0.150482	-0.150654	-0.00166738	2	-1.6022e-05	2.51197e-07
2	0	0	1	1	404.986	-0.15383	-0.154008	-0.00169552	2	-1.60453e-05	2.61125e-07
2	0	0	0	1	404.999	-0.157179	-0.157358	-0.0017279	2	-1.6069e-05	2.71899e-07
2	0	0	0	1	405.012	-0.160478	-0.16065	-0.00176063	2	-1.60928e-05	2.82845e-07
2	0	0	1	1	405.026	-0.163827	-0.164019	-0.00178935	2	-1.61173e-05	2.93488e-07
2	0	0	0	1	405.039	-0.167175	-0.167373	-0.00182341	2	-1.61423e-05	3.05189e-07
2	0	0	0	1	405.052	-0.170474	-0.170675	-0.0018522	2	-1.61673e-05	3.16124e-07
2	0	0	1	1	405.066	-0.173823	-0.174026	-0.00188708	2	-1.61931e-05	3.28402e-07
2	0	0	1	1	405.079	-0.177138	-0.177337	-0.00192094	2	-1.6219e-05	3.40653e-07
2	0	0	0	1	405.092	-0.180487	-0.180686	-0.00195675	2	-1.62457e-05	3.53558e-07
2	0	0	1	1	405.106	-0.183836	-0.184034	-0.00198794	2	-1.62729e-05	3.65849e-07
2	0	0	1	1	405.119	-0.187134	-0.187327	-0.0020221	2	-1.63001e-05	3.78794e-07
2	0	0	0	1	405.132	-0.190483	-0.19068	-0.00205704	2	-1.63282e-05	3.92236e-07
2	0	0	1	1	405.146	-0.193832	-0.194022	-0.00209143	2	-1.63567e-05	4.05783e-07
2	0	0	1	1	405.159	-0.197131	-0.197319	-0.00212337	2	-1.63853e-05	4.18982e-07
2	0	0	0	1	405.172	-0.200479	-0.200677	-0.00216267	2	-1.64147e-05	4.33997e-07
2	0	0	1	1	405.186	-0.203828	-0.204041	-0.00219641	2	-1.64447e-05	4.48157e-07
2	0	0	1	1	405.199	-0.207127	-0.207329	-0.00223241	2	-1.64747e-05	4.62845e-07
2	0	0	0	1	405.212	-0.210476	-0.210667	-0.00227029	2	-1.65056e-05	4.78275e-07
2	0	0	1	1	405.226	-0.213824	-0.214038	-0.00230166	2	-1.6537e-05	4.92643e-07
2	0	0	1	1	405.239	-0.217123	-0.217338	-0.00233651	2	-1.65683e-05	5.07812e-07
2	0	0	0	1	405.252	-0.220488	-0.220688	-0.00237435	2	-1.66006e-05	5.23991e-07
2	0	0	0	1	405.265	-0.223787	-0.224006	-0.00240802	2	-1.66329e-05	5.39411e-07
2	0	0	1	1	405.279	-0.227136	-0.227359	-0.00244112	2	-1.66662e-05	5.55012e-07
2	0	0	0	1	405.292	-0.230485	-0.230699	-0.00247807	2	-1.66999e-05	5.71687e-07
2	0	0	0	1	405.305	-0.233783	-0.233971	-0.00250862	2	-1.67335e-05	5.86943e-07
2	0	0	1	1	405.319	-0.237132	-0.237323	-0.00254433	2	-1.67681e-05	6.03827e-07
2	0	0	0	1	405.332	-0.240481	-0.240688	-0.00257878	2	-1.68032e-05	6.20681e-07
2	0	0	0	1	405.345	-0.24378	-0.244005	-0.00261365	2	-1.68382e-05	6.37743e-07
2	0	0	1	1	405.359	-0.247128	-0.247345	-0.0026494	2	-1.68742e-05	6.55314e-07
2	0	0	0	1	405.372	-0.250477	-0.250693	-0.0026848	2	-1.69107e-05	6.73063e-07
2	0	0	0	1	405.385	-0.253776	-0.253992	-0.0027161	2	-1.69471e-05	6.89867e-07
2	0	0	1	1	405.399	-0.257124	-0.257311	-0.00275168	2	-1.69845e-05	7.08038e-07
2	0	0	0	1	405.412	-0.260473	-0.260655	-0.00278325	2	-1.70223e-05	7.25468e-07
2	0	0	0	1	405.425	-0.263789	-0.263979	-0.00282615	2	-1.70601e-05	7.46044e-07
2	0	0	1	1	405.439	-0.267137	-0.267331	-0.00285792	2	-1.70989e-05	7.64011e-07
2	0	0	1	1	405.452	-0.270436	-0.270631	-0.00289284	2	-1.71375e-05	7.82892e-07
2	0	0	0	1	405.465	-0.273785	-0.273973	-0.00292735	2	-1.71773e-05	8.02016e-07
2	0	0	1	1	405.479	-0.277133	-0.277325	-0.00296328	2	-1.72175e-05	8.21792e-07
2	0	0	1	1	405.492	-0.280432	-0.280618	-0.00300127	2	-1.72576e-05	8.42208e-07
2	0	0	0	1	405.505	-0.283781	-0.283961	-0.00303524	2	-1.72988e-05	8.61889e-07
2	0	0	1	1	405.519	-0.28713	-0.287305	-0.00307595	2	-1.73405e-05	8.83737e-07
2	0	0	1	1	405.532	-0.290428	-0.29062	-0.00311344	2	-1.73821e-05	9.04829e-07
2	0	0	0	1	405.545	-0.293777	-0.293953	-0.00314663	2	-1.74248e-05	9.24961e-07
2	0	0	1	1	405.559	-0.297126	-0.297321	-0.00319283	2	-1.7468e-05	9.49298e-07
2	0	0	1	1	405.572	-0.300425	-0.300637	-0.0032297	2	-1.75111e-05	9.70967e-07
2	0	0	0	1	405.585	-0.303773	-0.303986	-0.00326647	2	-1.75554e-05	9.92959e-07
2	0	0	1	1	405.599	-0.307111	-0.30733	-0.00331133	2	-1.75999e-05	1.01767e-06
2	0	0	1	1	405.612	-0.310437	-0.310653	-0.00335033	2	-1.76449e-05	1.04079e-06
2	0	0	0	1	405.625	-0.313786	-0.313999	-0.00338758	2	-1.76908e-05	1.0637e-06
2	0	0	0	1	405.639	-0.317085	-0.317293	-0.00343183	2	-1.77366e-05	1.0889e-06
2	0	0	1	1	405.652	-0.320434	-0.320623	-0.00347193	2	-1.77836e-05	1.11318e-06
2	0	0	0	1	405.665	-0.323782	-0.32397	-0.00351495	2	-1.78311e-05	1.13874e-06
2	0	0	0	1	405.679	-0.327081	-0.327269	-0.00355998	2	-1.78785e-05	1.16507e-06
2	0	0	1	1	405.692	-0.33043	-0.330647	-0.00360425	2	-1.79273e-05	1.19173e-06
2	0	0	0	1	405.705	-0.333778	-0.33399	-0.00364987	2	-1.79766e-05	1.21902e-06
2	0	0	0	1	405.719	-0.337077	-0.337295	-0.0036928	2	-1.80258e-05	1.24556e-06
2	0	0	1	1	405.732	-0.340426	-0.340672	-0.00374279	2	-1.80764e-05	1.27506e-06
2	0	0	0	1	405.745	-0.343775	-0.344008	-0.00378753	2	-1.81276e-05	1.30294e-06
2	0	0	0	1	405.759	-0.347073	-0.347301	-0.00383145	2	-1.81787e-05	1.33067e-06
2	0	0	1	1	405.772	-0.350428	-0.350685	-0.00388675	2	-1.82311e-05	1.36302e-06
2	0	0	1	1	405.785	-0.353738	-0.353979	-0.00393089	2	-1.82835e-05	1.39145e-06
2	0	0	0	1	405.799	-0.357086	-0.357313	-0.00397638	2	-1.83372e-05	1.42081e-06
2	0	0	1	1	405.812	-0.360435	-0.360678	-0.00402816	2	-1.83916e-05	1.45287e-06
2	0	0	1	1	405.825	-0.363734	-0.363953	-0.00407563	2	-1.84459e-05	1.48334e-06
2	0	0	0	1	405.839	-0.367083	-0.367292	-0.00413302	2	-1.85016e-05	1.51802e-06
2	0	0	1	1	405.852	-0.370431	-0.370639	-0.00418542	2	-1.85581e-05	1.55128e-06
2	0	0	1	1	405.865	-0.37373	-0.373943	-0.00424019	2	-1.86145e-05	1.58559e-06
2	0	0	0	1	405.879	-0.377079	-0.377305	-0.00429384	2	-1.86724e-05	1.62009e-06
2	0	0	1	1	405.892	-0.380427	-0.380664	-0.00434975	2	-1.8731e-05	1.65579e-06
2	0	0	1	1	405.905	-0.383726	-0.38398	-0.00440849	2	-1.87896e-05	1.69277e-06
2	0	0	0	1	405.919	-0.387075	-0.38733	-0.00445588	2	-1.88497e-05	1.72589e-06
2	0	0	1	1	405.932	-0.390424	-0.390673	-0.00451496	2	-1.89106e-05	1.76387e-06
2	0	0	1	1	405.945	-0.393728	-0.393989	-0.00457809	2	-1.89714e-05	1.80372e-06
2	0	0	0	1	405.959	-0.397088	-0.397348	-0.00463468	2	-1.90339e-05	1.84158e-06
2	0	0	0	1	405.972	-0.400387	-0.400635	-0.00468728	2	-1.90961e-05	1.87789e-06
2	0	0	1	1	405.985	-0.403735	-0.403969	-0.00474784	2	-1.91601e-05	1.91798e-06
2	0	0	0	1	405.999	-0.407084	-0.407308	-0.00480941	2	-1.92249e-05	1.95891e-06
2	0	0	0	1	406.012	-0.410383	-0.410605	-0.0048659	2	-1.92895e-05	1.99796e-06
2	0	0	1	1	406.025	-0.413731	-0.413977	-0.00493241	2	-1.9356e-05	2.0419e-06
2	0	0	0	1	406.039	-0.41708	-0.417319	-0.004993	2	-1.94232e-05	2.08367e-06
2	0	0	0	1	406.052	-0.420379	-0.420619	-0.00505114	2	-1.94903e-05	2.12461e-06
2	0	0	1	1	406.065	-0.423728	-0.42397	-0.005118	2	-1.95592e-05	2.16988e-06
2	0	0	0	1	406.079	-0.427076	-0.427312	-0.00517842	2	-1.96289e-05	2.2128e-06
2	0	0	0	1	406.092	-0.430375	-0.430592	-0.00523803	2	-1.96984e-05	2.25545e-06
2	0	0	1	1	406.105	-0.433724	-0.433945	-0.00530748	2	-1.97698e-05	2.30316e-06
2	0	0	0	1	406.118	-0.43705	-0.437278	-0.00536943	2	-1.98415e-05	2.34793e-06
2	0	0	0	1	406.132	-0.440388	-0.440625	-0.00544278	2	-1.99142e-05	2.39822e-06
2	0	0	1	1	406.145	-0.443737	-0.443976	-0.00550189	2	-1.99883e-05	2.44271e-06
2	0	0	1	1	406.158	-0.447035	-0.447264	-0.00556748	2	-2.00621e-05	2.49013e-06
2	0	0	0	1	406.172	-0.450384	-0.45059	-0.00563078	2	-2.01379e-05	2.53718e-06
2	0	0	1	1	406.185	-0.453733	-0.453938	-0.00570026	2	-2.02145e-05	2.58756e-06
2	0	0	1	1	406.198	-0.457032	-0.457265	-0.00577017	2	-2.0291e-05	2.63849e-06
2	0	0	0	1	406.212	-0.46038	-0.460603	-0.0058417	2	-2.03695e-05	2.69071e-06
2	0	0	1	1	406.225	-0.463729	-0.463947	-0.00590072	2	-2.04489e-05	2.73762e-06
2	0	0	1	1	406.238	-0.467028	-0.467271	-0.00597468	2	-2.0528e-05	2.79179e-06
2	0	0	0	1	406.252	-0.470376	-0.470622	-0.0060446	2	-2.06093e-05	2.84472e-06
2	0	0	1	1	406.265	-0.473725	-0.473966	-0.00610645	2	-2.06915e-05	2.89425e-06
2	0	0	1	1	406.278	-0.477024	-0.47727	-0.00617961	2	-2.07733e-05	2.94934e-06
2	0	0	0	1	406.292	-0.480373	-0.480613	-0.00624863	2	-2.08574e-05	3.00317e-06
2	0	0	0	1	406.305	-0.483688	-0.483935	-0.00632306	2	-2.09411e-05	3.05995e-06
2	0	0	1	1	406.318	-0.487037	-0.48727	-0.00639055	2	-2.1027e-05	3.11392e-06
2	0	0	0	1	406.332	-0.490385	-0.490627	-0.00645775	2	-2.11139e-05	3.16834e-06
2	0	0	0	1	406.345	-0.493684	-0.493915	-0.00652755	2	-2.12003e-05	3.22406e-06
2	0	0	1	1	406.358	-0.497033	-0.49726	-0.00659798	2	-2.1289e-05	3.28091e-06
2	0	0	0	1	406.372	-0.500382	-0.500636	-0.00666848	2	-2.13786e-05	3.33848e-06
2	0	0	0	1	406.385	-0.50368	-0.503924	-0.00674499	2	-2.14679e-05	3.39896e-06
2	0	0	1	1	406.398	-0.507029	-0.507267	-0.00681259	2	-2.15595e-05	3.4558e-06
2	0	0	0	1	406.412	-0.510378	-0.510632	-0.00689086	2	-2.16521e-05	3.51869e-06
2	0	0	0	1	406.425	-0.513677	-0.513932	-0.00695995	2	-2.17442e-05	3.57694e-06
2	0	0	1	1	406.438	-0.517025	-0.517269	-0.00703062	2	-2.18387e-05	3.63672e-06
2	0	0	0	1	406.452	-0.520374	-0.52062	-0.00711322	2	-2.19342e-05	3.70328e-06
2	0	0	0	1	406.465	-0.523673	-0.523923	-0.00718323	2	-2.20293e-05	3.76346e-06
2	0	0	1	1	406.478	-0.527038	-0.527283	-0.0072579	2	-2.21269e-05	3.82697e-06
2	0	0	1	1	406.492	-0.530337	-0.53058	-0.00734205	2	-2.2224e-05	3.89555e-06
2	0	0	0	1	406.505	-0.533686	-0.533916	-0.00740992	2	-2.23235e-05	3.95627e-06
2	0	0	1	1	406.518	-0.537034	-0.537282	-0.00749007	2	-2.24241e-05	4.02428e-06
2	0	0	1	1	406.532	-0.540333	-0.540566	-0.00757291	2	-2.25243e-05	4.09366e-06
2	0	0	0	1	406.545	-0.543682	-0.543909	-0.00764838	2	-2.26271e-05	4.16002e-06
2	0	0	1	1	406.558	-0.547031	-0.547275	-0.00772968	2	-2.27308e-05	4.23026e-06
2	0	0	1	1	406.572	-0.550329	-0.550574	-0.00781325	2	-2.28342e-05	4.30177e-06
2	0	0	0	1	406.585	-0.553678	-0.553929	-0.00790112	2	-2.29402e-05	4.37666e-06
2	0	0	1	1	406.598	-0.557027	-0.557296	-0.00798132	2	-2.30474e-05	4.44796e-06
2	0	0	1	1	406.612	-0.560326	-0.560567	-0.00807261	2	-2.31541e-05	4.52524e-06
2	0	0	0	1	406.625	-0.563674	-0.563931	-0.00816107	2	-2.32636e-05	4.60228e-06
2	0	0	1	1	406.638	-0.567023	-0.567276	-0.00824413	2	-2.33743e-05	4.6767e-06
2	0	0	1	1	406.652	-0.570338	-0.570598	-0.00834485	2	-2.34846e-05	4.76155e-06
2	0	0	0	1	406.665	-0.573687	-0.57395	-0.00843447	2	-2.35977e-05	4.84096e-06
2	0	0	0	1	406.678	-0.576986	-0.577239	-0.00852455	2	-2.37104e-05	4.9207e-06
2	0	0	1	1	406.692	-0.580335	-0.580572	-0.00861983	2	-2.3826e-05	5.00444e-06
2	0	0	0	1	406.705	-0.583683	-0.583917	-0.00872231	2	-2.3943e-05	5.0931e-06
2	0	0	0	1	406.718	-0.586982	-0.587246	-0.00882223	2	-2.40596e-05	5.18082e-06
2	0	0	1	1	406.732	-0.590331	-0.590575	-0.00892448	2	-2.41792e-05	5.27057e-06
2	0	0	0	1	406.745	-0.593679	-0.593939	-0.00902503	2	-2.43002e-05	5.36032e-06
2	0	0	0	1	406.758	-0.596978	-0.597225	-0.00912359	2	-2.44208e-05	5.44884e-06
2	0	0	1	1	406.767	-0.599148	-0.599382	-0.00919507	2	-2.45008e-05	5.51135e-06
2	0	0	1	1	406.77	-0.599827	-0.600085	-0.00923701	2	-2.45258e-05	5.54299e-06