File: TAP_Report/Data/Res_SHU/100 uM RS 10mM SHU_08_CV_C01_2.mpt
EC-Lab ASCII FILE
Nb header lines : 53

Cyclic Voltammetry

Run on channel : 1 (SN 0696)
User :
Electrode connection : standard
Ewe ctrl range : min = -10.00 V, max = 10.00 V
Ewe,I filtering : 50 kHz
Channel : Grounded
Acquisition started on : 05/17/2017 13:04:41
Saved on :
	File : 100 uM RS 10mM SHU_08_CV_C01.mpr
	Directory : \\userfs\st659\w2k\EC-Lab\Data\ITO Characterisation 17-5-17\
	Host : 144.32.136.43
Device : SP-300 (SN 0182)
Address : USB
EC-Lab for windows v10.44 (software)
Internet server v10.44 (firmware)
Command interpretor v10.44 (firmware)
Electrode material :
Initial state :
Electrolyte :
Comments :
Cable : standard
Electrode surface area : 0.001 cm²
Characteristic mass : 0.001 g
Equivalent Weight : 0.000 g/eq.
Density : 0.000 g/cm3
Ei (V)              0.000
vs.                 Eoc
dE/dt               5000.000
dE/dt unit          mV/s
E1 (V)              0.100
vs.                 Ref
Step percent        50
N                   10
E range min (V)     -10.000
E range max (V)     10.000
I Range             Auto
I Range min         Unset
I Range max         Unset
I Range init        Unset
Bandwidth           8
E2 (V)              -0.600
vs.                 Ref
nc cycles           2
Reverse Scan        1
Ef (V)              0.000
vs.                 Eoc

mode	ox/red	error	control changes	counter inc.	time/s	control/V	Ewe/V	<I>/mA	cycle number	(Q-Qo)/C	P/W
2	1	0	1	1	434.141	-0.599161	-0.599447	-0.0335348	2	-3.09476e-06	2.01023e-05
2	1	0	0	1	434.142	-0.593663	-0.593959	-0.0277189	2	-3.12574e-06	1.64639e-05
2	1	0	0	1	434.144	-0.583667	-0.583938	-0.0204828	2	-3.17309e-06	1.19607e-05
2	1	0	0	1	434.146	-0.57367	-0.573951	-0.0156587	2	-3.2087e-06	8.98735e-06
2	1	0	0	1	434.148	-0.563674	-0.563936	-0.0121024	2	-3.23606e-06	6.82498e-06
2	1	0	0	1	434.15	-0.553678	-0.553947	-0.00929975	2	-3.25717e-06	5.15157e-06
2	1	0	0	1	434.152	-0.543682	-0.543915	-0.00702364	2	-3.27325e-06	3.82026e-06
2	1	0	0	1	434.154	-0.533686	-0.533931	-0.00516582	2	-3.28524e-06	2.75819e-06
2	1	0	0	1	434.156	-0.523689	-0.523947	-0.00358365	2	-3.29382e-06	1.87764e-06
2	1	0	0	1	434.158	-0.513693	-0.513956	-0.00222955	2	-3.29949e-06	1.14589e-06
2	1	0	0	1	434.16	-0.503697	-0.503952	-0.00104914	2	-3.30265e-06	5.28718e-07
2	1	0	0	1	434.162	-0.493701	-0.493934	-2.06558e-05	2	-3.30361e-06	1.02026e-08
2	1	0	0	1	434.164	-0.483705	-0.483963	0.000884639	2	-3.30265e-06	4.28133e-07
2	1	0	0	1	434.166	-0.473708	-0.473967	0.00170138	2	-3.29998e-06	8.064e-07
2	1	0	0	1	434.168	-0.463712	-0.463945	0.00245522	2	-3.29575e-06	1.13909e-06
2	1	0	0	1	434.17	-0.453716	-0.453946	0.00311129	2	-3.29012e-06	1.41236e-06
2	1	0	0	1	434.172	-0.44372	-0.443969	0.00368102	2	-3.28326e-06	1.63426e-06
2	1	0	0	1	434.174	-0.433724	-0.433955	0.00424303	2	-3.27528e-06	1.84128e-06
2	1	0	0	1	434.176	-0.423728	-0.423977	0.00474711	2	-3.26624e-06	2.01267e-06
2	1	0	0	1	434.178	-0.413731	-0.414004	0.00518776	2	-3.25626e-06	2.14775e-06
2	1	0	0	1	434.18	-0.403735	-0.403996	0.00561815	2	-3.24541e-06	2.26971e-06
2	1	0	0	1	434.182	-0.393739	-0.393993	0.00601561	2	-3.23374e-06	2.37011e-06
2	1	0	0	1	434.184	-0.383743	-0.384002	0.00638665	2	-3.22129e-06	2.45249e-06
2	1	0	0	1	434.186	-0.373747	-0.373986	0.00673944	2	-3.20813e-06	2.52046e-06
2	1	0	0	1	434.188	-0.36375	-0.364003	0.00704401	2	-3.19431e-06	2.56404e-06
2	1	0	0	1	434.19	-0.353754	-0.354021	0.0073451	2	-3.1799e-06	2.60032e-06
2	1	0	0	1	434.192	-0.343758	-0.344011	0.00764293	2	-3.16488e-06	2.62926e-06
2	1	0	0	1	434.194	-0.333762	-0.333979	0.0079207	2	-3.14929e-06	2.64535e-06
2	1	0	0	1	434.196	-0.323766	-0.323956	0.00814801	2	-3.13319e-06	2.6396e-06
2	1	0	0	1	434.198	-0.313769	-0.313994	0.00836853	2	-3.11665e-06	2.62767e-06
2	1	0	0	1	434.2	-0.303773	-0.303989	0.00859679	2	-3.09967e-06	2.61333e-06
2	1	0	0	1	434.202	-0.293777	-0.293995	0.00882932	2	-3.08222e-06	2.59578e-06
2	1	0	0	1	434.204	-0.283781	-0.283989	0.00902159	2	-3.06435e-06	2.56203e-06
2	1	0	0	1	434.206	-0.273785	-0.273985	0.00922106	2	-3.04609e-06	2.52643e-06
2	1	0	0	1	434.208	-0.263789	-0.264007	0.00940534	2	-3.02744e-06	2.48308e-06
2	1	0	0	1	434.21	-0.253792	-0.254005	0.00957082	2	-3.00845e-06	2.43104e-06
2	1	0	0	1	434.212	-0.243796	-0.243997	0.00977112	2	-2.98909e-06	2.38412e-06
2	1	0	0	1	434.214	-0.2338	-0.234009	0.00995576	2	-2.96934e-06	2.32974e-06
2	1	0	0	1	434.216	-0.223804	-0.224025	0.0101314	2	-2.94924e-06	2.2697e-06
2	1	0	0	1	434.218	-0.213808	-0.214026	0.0103165	2	-2.92877e-06	2.208e-06
2	1	0	0	1	434.22	-0.203811	-0.204	0.010519	2	-2.90792e-06	2.14589e-06
2	1	0	0	1	434.222	-0.193815	-0.194016	0.0106898	2	-2.88669e-06	2.07399e-06
2	1	0	0	1	434.224	-0.183819	-0.184032	0.0108591	2	-2.86512e-06	1.99842e-06
2	1	0	0	1	434.226	-0.173823	-0.174016	0.0110843	2	-2.84316e-06	1.92884e-06
2	1	0	0	1	434.228	-0.163827	-0.164014	0.0112737	2	-2.82078e-06	1.84904e-06
2	1	0	0	1	434.23	-0.15383	-0.154014	0.011482	2	-2.798e-06	1.76839e-06
2	1	0	0	1	434.232	-0.143834	-0.144041	0.0116938	2	-2.7748e-06	1.68438e-06
2	1	0	0	1	434.234	-0.133838	-0.134042	0.0118894	2	-2.7512e-06	1.59368e-06
2	1	0	0	1	434.236	-0.123842	-0.12402	0.0121077	2	-2.72718e-06	1.50161e-06
2	1	0	0	1	434.238	-0.113846	-0.114008	0.0123114	2	-2.70274e-06	1.4036e-06
2	1	0	0	1	434.24	-0.10385	-0.104022	0.0125019	2	-2.67791e-06	1.30047e-06
2	1	0	0	1	434.242	-0.0938533	-0.0940423	0.0127335	2	-2.65265e-06	1.19749e-06
2	1	0	0	1	434.244	-0.0838571	-0.0840495	0.0129057	2	-2.62699e-06	1.08472e-06
2	1	0	0	1	434.246	-0.073861	-0.0740584	0.0131356	2	-2.60093e-06	9.72803e-07
2	1	0	0	1	434.248	-0.0638648	-0.0640669	0.0133313	2	-2.57444e-06	8.54098e-07
2	1	0	0	1	434.25	-0.0538686	-0.0540862	0.0135486	2	-2.54754e-06	7.32793e-07
2	1	0	0	1	434.252	-0.0438724	-0.0440733	0.013767	2	-2.5202e-06	6.06757e-07
2	1	0	0	1	434.254	-0.0338762	-0.0340636	0.0139639	2	-2.49245e-06	4.7566e-07
2	1	0	0	1	434.256	-0.02388	-0.02406	0.0141315	2	-2.46434e-06	3.40004e-07
2	1	0	0	1	434.258	-0.0138838	-0.014078	0.014303	2	-2.43589e-06	2.01359e-07
2	1	0	0	1	434.26	-0.00388763	-0.00409161	0.0144577	2	-2.40711e-06	5.91553e-08
2	1	0	0	1	434.262	0.00610855	0.00594208	0.0146275	2	-2.37801e-06	8.69178e-08
2	1	0	0	1	434.264	0.0161047	0.0159766	0.0147233	2	-2.34865e-06	2.35228e-07
2	1	0	0	1	434.266	0.0261009	0.0259435	0.0148268	2	-2.31908e-06	3.8466e-07
2	1	0	0	1	434.268	0.0360971	0.0359391	0.0149335	2	-2.28931e-06	5.36695e-07
2	1	0	0	1	434.27	0.046408	0.0462809	0.0151857	2	-2.25919e-06	7.0281e-07
2	1	0	0	1	434.272	0.0564227	0.056304	0.0151837	2	-2.22881e-06	8.54902e-07
2	1	0	0	1	434.274	0.0664189	0.0662811	0.0152038	2	-2.19842e-06	1.00773e-06
2	1	0	0	1	434.276	0.076415	0.0762499	0.0152294	2	-2.16799e-06	1.16124e-06
2	1	0	0	1	434.278	0.0864112	0.0862465	0.0152616	2	-2.13749e-06	1.31626e-06
2	1	0	0	1	434.28	0.0954078	0.0952486	0.0152808	2	-2.11e-06	1.45548e-06
2	1	0	0	1	434.281	0.0999061	0.0997306	0.0153297	2	-2.09624e-06	1.52885e-06
2	1	0	1	1	434.281	0.100906	0.100749	0.0153088	2	-2.09318e-06	1.54235e-06
2	0	0	0	1	434.281	0.0999061	0.0999329	0.0140116	2	-2.09037e-06	1.40022e-06
2	0	0	1	1	434.282	0.0944082	0.0943801	0.00864699	2	-2.08041e-06	8.16104e-07
2	0	0	1	1	434.284	0.084412	0.0843693	0.00323105	2	-2.06923e-06	2.72602e-07
2	0	0	1	1	434.286	0.0744158	0.074356	0.000448423	2	-2.06589e-06	3.3343e-08
2	0	0	1	1	434.288	0.0644196	0.0643613	-0.0012733	2	-2.06691e-06	8.19513e-08
2	0	0	1	1	434.29	0.0544234	0.0543809	-0.00249664	2	-2.07081e-06	1.35769e-07
2	0	0	1	1	434.292	0.0443347	0.0442452	-0.00351307	2	-2.07693e-06	1.55437e-07
2	0	0	1	1	434.294	0.0340979	0.0340095	-0.00433787	2	-2.08488e-06	1.47529e-07
2	0	0	1	1	434.296	0.0241017	0.024007	-0.00493084	2	-2.09421e-06	1.18375e-07
2	0	0	1	1	434.298	0.0141055	0.0140221	-0.00548139	2	-2.10468e-06	7.68604e-08
2	0	0	1	1	434.3	0.00410932	0.0039958	-0.00599272	2	-2.11621e-06	2.39457e-08
2	0	0	1	1	434.302	-0.00588687	-0.00599868	-0.00646447	2	-2.12871e-06	3.87782e-08
2	0	0	1	1	434.304	-0.0158831	-0.0160116	-0.00689657	2	-2.14212e-06	1.10425e-07
2	0	0	1	1	434.306	-0.0258792	-0.0259919	-0.00728073	2	-2.15634e-06	1.8924e-07
2	0	0	1	1	434.308	-0.0358754	-0.0360111	-0.0076616	2	-2.17132e-06	2.75903e-07
2	0	0	1	1	434.31	-0.0458716	-0.0460092	-0.00803592	2	-2.18705e-06	3.69726e-07
2	0	0	1	1	434.312	-0.0558678	-0.0560096	-0.00838297	2	-2.2035e-06	4.69527e-07
2	0	0	1	1	434.314	-0.065864	-0.0659946	-0.00870394	2	-2.22062e-06	5.74413e-07
2	0	0	1	1	434.316	-0.0758602	-0.0759924	-0.00903105	2	-2.23838e-06	6.86292e-07
2	0	0	1	1	434.318	-0.0858564	-0.0859606	-0.00931602	2	-2.25676e-06	8.00811e-07
2	0	0	1	1	434.32	-0.0958526	-0.0959687	-0.00965	2	-2.27576e-06	9.26098e-07
2	0	0	1	1	434.322	-0.105849	-0.105943	-0.00996445	2	-2.29541e-06	1.05566e-06
2	0	0	1	1	434.324	-0.115845	-0.115945	-0.0102684	2	-2.31567e-06	1.19057e-06
2	0	0	1	1	434.326	-0.125841	-0.125965	-0.010583	2	-2.33656e-06	1.33308e-06
2	0	0	1	1	434.328	-0.135837	-0.135971	-0.0109053	2	-2.35808e-06	1.4828e-06
2	0	0	1	1	434.33	-0.145834	-0.145959	-0.0112115	2	-2.38023e-06	1.63643e-06
2	0	0	1	1	434.332	-0.15583	-0.15594	-0.0115109	2	-2.40298e-06	1.79501e-06
2	0	0	1	1	434.334	-0.165826	-0.165956	-0.0118521	2	-2.42638e-06	1.96693e-06
2	0	0	1	1	434.336	-0.175822	-0.175957	-0.0121737	2	-2.45044e-06	2.14205e-06
2	0	0	1	1	434.338	-0.185818	-0.185958	-0.0124861	2	-2.47513e-06	2.32188e-06
2	0	0	1	1	434.34	-0.195814	-0.195925	-0.0127736	2	-2.50042e-06	2.50266e-06
2	0	0	1	1	434.342	-0.205811	-0.205947	-0.0131383	2	-2.52637e-06	2.70579e-06
2	0	0	1	1	434.344	-0.215807	-0.215969	-0.0134865	2	-2.55303e-06	2.91268e-06
2	0	0	1	1	434.346	-0.225803	-0.225963	-0.0138255	2	-2.58037e-06	3.12405e-06
2	0	0	1	1	434.348	-0.235799	-0.235953	-0.014193	2	-2.60842e-06	3.34889e-06
2	0	0	1	1	434.35	-0.245795	-0.245936	-0.014533	2	-2.63718e-06	3.57418e-06
2	0	0	1	1	434.352	-0.255792	-0.255938	-0.0148807	2	-2.66663e-06	3.80853e-06
2	0	0	1	1	434.354	-0.265788	-0.265921	-0.0152075	2	-2.69675e-06	4.04398e-06
2	0	0	1	1	434.356	-0.275784	-0.275911	-0.0155733	2	-2.72757e-06	4.29684e-06
2	0	0	1	1	434.358	-0.28578	-0.285896	-0.0159253	2	-2.7591e-06	4.55299e-06
2	0	0	1	1	434.36	-0.295776	-0.295894	-0.0162477	2	-2.79131e-06	4.8076e-06
2	0	0	1	1	434.362	-0.305773	-0.305921	-0.0165728	2	-2.82417e-06	5.06996e-06
2	0	0	1	1	434.364	-0.315769	-0.315919	-0.0169018	2	-2.85768e-06	5.33961e-06
2	0	0	1	1	434.366	-0.325765	-0.325892	-0.0171855	2	-2.89179e-06	5.60061e-06
2	0	0	1	1	434.368	-0.335761	-0.335908	-0.0174803	2	-2.92649e-06	5.87179e-06
2	0	0	1	1	434.37	-0.345757	-0.34593	-0.0178042	2	-2.96182e-06	6.159e-06
2	0	0	1	1	434.372	-0.355754	-0.355928	-0.0181391	2	-2.99779e-06	6.45619e-06
2	0	0	1	1	434.374	-0.36575	-0.365914	-0.0184051	2	-3.03436e-06	6.73467e-06
2	0	0	1	1	434.376	-0.375746	-0.375913	-0.0186963	2	-3.07149e-06	7.0282e-06
2	0	0	1	1	434.378	-0.385742	-0.385934	-0.0189965	2	-3.10922e-06	7.33142e-06
2	0	0	1	1	434.38	-0.395738	-0.395933	-0.0192718	2	-3.14751e-06	7.63033e-06
2	0	0	1	1	434.382	-0.405734	-0.405904	-0.0195856	2	-3.1864e-06	7.94986e-06
2	0	0	1	1	434.384	-0.415731	-0.415915	-0.0198962	2	-3.22591e-06	8.27514e-06
2	0	0	1	1	434.386	-0.425727	-0.425909	-0.0202209	2	-3.26606e-06	8.61228e-06
2	0	0	1	1	434.388	-0.435723	-0.435887	-0.0205739	2	-3.3069e-06	8.96787e-06
2	0	0	1	1	434.39	-0.445719	-0.445879	-0.0208965	2	-3.3484e-06	9.31731e-06
2	0	0	1	1	434.392	-0.455715	-0.455861	-0.0212453	2	-3.39058e-06	9.68489e-06
2	0	0	1	1	434.394	-0.465712	-0.465877	-0.0216396	2	-3.4335e-06	1.00814e-05
2	0	0	1	1	434.396	-0.475708	-0.475878	-0.0220359	2	-3.47722e-06	1.04864e-05
2	0	0	1	1	434.398	-0.485704	-0.48588	-0.0224502	2	-3.52175e-06	1.09081e-05
2	0	0	1	1	434.4	-0.4957	-0.495865	-0.0228931	2	-3.56714e-06	1.13519e-05
2	0	0	1	1	434.402	-0.505696	-0.505863	-0.0233314	2	-3.61341e-06	1.18025e-05
2	0	0	1	1	434.404	-0.515693	-0.515882	-0.0238218	2	-3.66061e-06	1.22893e-05
2	0	0	1	1	434.406	-0.525689	-0.525878	-0.024338	2	-3.70883e-06	1.27989e-05
2	0	0	1	1	434.408	-0.535685	-0.535847	-0.0248672	2	-3.75809e-06	1.3325e-05
2	0	0	1	1	434.41	-0.545681	-0.545844	-0.0254309	2	-3.80844e-06	1.38813e-05
2	0	0	1	1	434.412	-0.555677	-0.555853	-0.0260501	2	-3.85998e-06	1.448e-05
2	0	0	1	1	434.414	-0.565673	-0.565862	-0.0267315	2	-3.91282e-06	1.51264e-05
2	0	0	1	1	434.416	-0.57567	-0.575842	-0.0273969	2	-3.96701e-06	1.57763e-05
2	0	0	1	1	434.418	-0.585666	-0.58585	-0.0281398	2	-4.02262e-06	1.64857e-05
2	0	0	1	1	434.42	-0.594662	-0.594844	-0.0288409	2	-4.0739e-06	1.71558e-05
2	0	0	1	1	434.421	-0.599161	-0.599341	-0.0292051	2	-4.09996e-06	1.75038e-05
2	0	0	0	1	434.421	-0.60016	-0.600317	-0.0292475	2	-4.10581e-06	1.75578e-05