File: TAP_Report/Data/Res_SHU/100 uM RS 10mM SHU_03_CV_C01_2.mpt
EC-Lab ASCII FILE
Nb header lines : 53

Cyclic Voltammetry

Run on channel : 1 (SN 0696)
User :
Electrode connection : standard
Ewe ctrl range : min = -10.00 V, max = 10.00 V
Ewe,I filtering : 50 kHz
Channel : Grounded
Acquisition started on : 05/17/2017 13:04:41
Saved on :
	File : 100 uM RS 10mM SHU_03_CV_C01.mpr
	Directory : \\userfs\st659\w2k\EC-Lab\Data\ITO Characterisation 17-5-17\
	Host : 144.32.136.43
Device : SP-300 (SN 0182)
Address : USB
EC-Lab for windows v10.44 (software)
Internet server v10.44 (firmware)
Command interpretor v10.44 (firmware)
Electrode material :
Initial state :
Electrolyte :
Comments :
Cable : standard
Electrode surface area : 0.001 cm²
Characteristic mass : 0.001 g
Equivalent Weight : 0.000 g/eq.
Density : 0.000 g/cm3
Ei (V)              0.000
vs.                 Eoc
dE/dt               100.000
dE/dt unit          mV/s
E1 (V)              0.100
vs.                 Ref
Step percent        50
N                   10
E range min (V)     -10.000
E range max (V)     10.000
I Range             Auto
I Range min         Unset
I Range max         Unset
I Range init        Unset
Bandwidth           8
E2 (V)              -0.600
vs.                 Ref
nc cycles           2
Reverse Scan        1
Ef (V)              0.000
vs.                 Eoc

mode	ox/red	error	control changes	counter inc.	time/s	control/V	Ewe/V	<I>/mA	cycle number	(Q-Qo)/C	P/W
2	1	0	1	1	357.967	-0.60016	-0.600336	-0.0083592	2	-2.6652e-05	5.01833e-06
2	1	0	0	1	357.985	-0.598328	-0.598535	-0.00779355	2	-2.67956e-05	4.66471e-06
2	1	0	1	1	358.019	-0.594989	-0.595205	-0.0074564	2	-2.70481e-05	4.43809e-06
2	1	0	1	1	358.052	-0.59167	-0.591893	-0.00720438	2	-2.72895e-05	4.26422e-06
2	1	0	0	1	358.085	-0.588332	-0.588584	-0.0069783	2	-2.75244e-05	4.10732e-06
2	1	0	0	1	358.118	-0.585006	-0.585237	-0.00677499	2	-2.77508e-05	3.96497e-06
2	1	0	1	1	358.152	-0.581667	-0.581903	-0.00658357	2	-2.79719e-05	3.83099e-06
2	1	0	0	1	358.185	-0.578329	-0.578555	-0.00641302	2	-2.81871e-05	3.71029e-06
2	1	0	0	1	358.218	-0.57501	-0.575231	-0.00624998	2	-2.83955e-05	3.59518e-06
2	1	0	1	1	358.252	-0.571671	-0.571897	-0.00609764	2	-2.85998e-05	3.48722e-06
2	1	0	0	1	358.285	-0.568337	-0.568582	-0.00595069	2	-2.87985e-05	3.38346e-06
2	1	0	0	1	358.318	-0.565007	-0.56525	-0.0058093	2	-2.89924e-05	3.28371e-06
2	1	0	1	1	358.352	-0.561668	-0.561907	-0.00567505	2	-2.91824e-05	3.18885e-06
2	1	0	1	1	358.385	-0.55835	-0.558582	-0.00555199	2	-2.93669e-05	3.10124e-06
2	1	0	0	1	358.418	-0.555011	-0.555248	-0.00542748	2	-2.95484e-05	3.0136e-06
2	1	0	1	1	358.452	-0.551679	-0.551884	-0.00530898	2	-2.97254e-05	2.92994e-06
2	1	0	1	1	358.485	-0.548347	-0.548573	-0.0051981	2	-2.98985e-05	2.85154e-06
2	1	0	0	1	358.518	-0.545008	-0.545209	-0.00509253	2	-3.00685e-05	2.77649e-06
2	1	0	0	1	358.552	-0.541689	-0.541887	-0.00498485	2	-3.02339e-05	2.70123e-06
2	1	0	1	1	358.585	-0.538351	-0.538547	-0.00488412	2	-3.0397e-05	2.63033e-06
2	1	0	0	1	358.618	-0.535021	-0.535232	-0.0047875	2	-3.05562e-05	2.56242e-06
2	1	0	0	1	358.652	-0.531686	-0.531906	-0.00469546	2	-3.07123e-05	2.49754e-06
2	1	0	1	1	358.685	-0.528348	-0.528557	-0.00460293	2	-3.08658e-05	2.43291e-06
2	1	0	1	1	358.718	-0.525029	-0.525258	-0.00451344	2	-3.10153e-05	2.37072e-06
2	1	0	0	1	358.752	-0.52169	-0.52191	-0.00442907	2	-3.11628e-05	2.31158e-06
2	1	0	1	1	358.785	-0.518351	-0.518567	-0.00434268	2	-3.13075e-05	2.25197e-06
2	1	0	1	1	358.818	-0.515026	-0.515243	-0.0042635	2	-3.14486e-05	2.19674e-06
2	1	0	0	1	358.852	-0.511687	-0.511921	-0.00418269	2	-3.15878e-05	2.14121e-06
2	1	0	0	1	358.885	-0.508369	-0.508585	-0.00410332	2	-3.17235e-05	2.08689e-06
2	1	0	1	1	358.918	-0.50503	-0.505246	-0.00402908	2	-3.18575e-05	2.03568e-06
2	1	0	0	1	358.952	-0.501691	-0.501911	-0.00395325	2	-3.1989e-05	1.98418e-06
2	1	0	0	1	358.985	-0.498366	-0.498578	-0.00387936	2	-3.21172e-05	1.93416e-06
2	1	0	1	1	359.018	-0.495027	-0.495238	-0.00381025	2	-3.22438e-05	1.88698e-06
2	1	0	1	1	359.051	-0.491708	-0.491924	-0.00373897	2	-3.23673e-05	1.83929e-06
2	1	0	0	1	359.085	-0.48837	-0.488605	-0.00367207	2	-3.24892e-05	1.79419e-06
2	1	0	1	1	359.118	-0.485031	-0.485264	-0.00360249	2	-3.26089e-05	1.74816e-06
2	1	0	1	1	359.151	-0.481708	-0.48192	-0.00353764	2	-3.27257e-05	1.70486e-06
2	1	0	0	1	359.185	-0.478367	-0.478597	-0.00347181	2	-3.28409e-05	1.6616e-06
2	1	0	0	1	359.218	-0.475048	-0.475247	-0.00340842	2	-3.29533e-05	1.61984e-06
2	1	0	1	1	359.251	-0.471709	-0.471931	-0.00334802	2	-3.30644e-05	1.58003e-06
2	1	0	0	1	359.285	-0.468371	-0.468589	-0.00328264	2	-3.31733e-05	1.53821e-06
2	1	0	0	1	359.318	-0.46505	-0.465249	-0.00322215	2	-3.32795e-05	1.4991e-06
2	1	0	1	1	359.351	-0.461706	-0.46191	-0.00316345	2	-3.33843e-05	1.46123e-06
2	1	0	1	1	359.385	-0.458388	-0.45857	-0.00310302	2	-3.34866e-05	1.42295e-06
2	1	0	0	1	359.418	-0.455049	-0.455218	-0.00304595	2	-3.35875e-05	1.38657e-06
2	1	0	1	1	359.451	-0.45171	-0.451887	-0.00298887	2	-3.36865e-05	1.35063e-06
2	1	0	1	1	359.485	-0.448391	-0.448588	-0.00293375	2	-3.3783e-05	1.31605e-06
2	1	0	0	1	359.518	-0.445046	-0.44524	-0.00287791	2	-3.38782e-05	1.28136e-06
2	1	0	0	1	359.551	-0.441727	-0.441946	-0.00282227	2	-3.39711e-05	1.24729e-06
2	1	0	1	1	359.585	-0.438389	-0.438593	-0.00276698	2	-3.40626e-05	1.21358e-06
2	1	0	0	1	359.618	-0.43505	-0.435243	-0.00271392	2	-3.41524e-05	1.18122e-06
2	1	0	0	1	359.651	-0.431731	-0.431922	-0.00266284	2	-3.42398e-05	1.15014e-06
2	1	0	1	1	359.685	-0.428388	-0.428596	-0.00260925	2	-3.43261e-05	1.11831e-06
2	1	0	1	1	359.718	-0.425067	-0.425285	-0.0025592	2	-3.44101e-05	1.08839e-06
2	1	0	0	1	359.751	-0.421728	-0.421951	-0.00250707	2	-3.44929e-05	1.05786e-06
2	1	0	1	1	359.785	-0.41839	-0.418609	-0.00245806	2	-3.45741e-05	1.02897e-06
2	1	0	1	1	359.818	-0.415071	-0.415305	-0.00240737	2	-3.4653e-05	9.99794e-07
2	1	0	0	1	359.851	-0.41173	-0.411955	-0.00235817	2	-3.47308e-05	9.71458e-07
2	1	0	0	1	359.884	-0.408407	-0.408625	-0.00231084	2	-3.48066e-05	9.44267e-07
2	1	0	1	1	359.918	-0.405068	-0.405278	-0.00226232	2	-3.48812e-05	9.16869e-07
2	1	0	0	1	359.951	-0.401729	-0.401951	-0.00221453	2	-3.49542e-05	8.90132e-07
2	1	0	0	1	359.984	-0.398411	-0.398629	-0.00217102	2	-3.50252e-05	8.65432e-07
2	1	0	1	1	360.018	-0.39507	-0.395294	-0.00212296	2	-3.50951e-05	8.39193e-07
2	1	0	1	1	360.051	-0.391746	-0.391979	-0.00207724	2	-3.5163e-05	8.14233e-07
2	1	0	0	1	360.084	-0.388408	-0.388629	-0.00203276	2	-3.52299e-05	7.8999e-07
2	1	0	1	1	360.118	-0.385069	-0.385291	-0.0019887	2	-3.52953e-05	7.6623e-07
2	1	0	1	1	360.151	-0.38175	-0.381967	-0.00194333	2	-3.53588e-05	7.42288e-07
2	1	0	0	1	360.184	-0.378412	-0.378605	-0.00190095	2	-3.54212e-05	7.1971e-07
2	1	0	0	1	360.218	-0.375086	-0.37529	-0.00185705	2	-3.54818e-05	6.96931e-07
2	1	0	1	1	360.251	-0.371747	-0.371947	-0.00181644	2	-3.55414e-05	6.75618e-07
2	1	0	0	1	360.284	-0.368409	-0.368592	-0.00177376	2	-3.55995e-05	6.53794e-07
2	1	0	0	1	360.318	-0.36509	-0.365291	-0.00173475	2	-3.5656e-05	6.33688e-07
2	1	0	1	1	360.351	-0.361751	-0.361954	-0.00169482	2	-3.57115e-05	6.13446e-07
2	1	0	0	1	360.384	-0.358417	-0.358644	-0.00165344	2	-3.57655e-05	5.92995e-07
2	1	0	0	1	360.418	-0.355087	-0.355317	-0.00161456	2	-3.58181e-05	5.7368e-07
2	1	0	1	1	360.451	-0.351748	-0.351965	-0.00157488	2	-3.58696e-05	5.54303e-07
2	1	0	1	1	360.484	-0.34843	-0.348645	-0.00153559	2	-3.59195e-05	5.35376e-07
2	1	0	0	1	360.518	-0.345091	-0.345321	-0.00149916	2	-3.59684e-05	5.1769e-07
2	1	0	1	1	360.551	-0.341759	-0.341987	-0.00146209	2	-3.6016e-05	5.00015e-07
2	1	0	1	1	360.584	-0.338427	-0.338624	-0.00142337	2	-3.60622e-05	4.81988e-07
2	1	0	0	1	360.618	-0.335088	-0.335269	-0.0013881	2	-3.61074e-05	4.65385e-07
2	1	0	0	1	360.651	-0.331769	-0.331947	-0.00135231	2	-3.61511e-05	4.48894e-07
2	1	0	1	1	360.684	-0.328431	-0.328609	-0.00131626	2	-3.61939e-05	4.32534e-07
2	1	0	0	1	360.717	-0.325101	-0.325278	-0.00128202	2	-3.62354e-05	4.17014e-07
2	1	0	0	1	360.751	-0.321766	-0.321951	-0.00124727	2	-3.62757e-05	4.01561e-07
2	1	0	1	1	360.784	-0.318428	-0.318618	-0.00121485	2	-3.6315e-05	3.87074e-07
2	1	0	1	1	360.817	-0.315109	-0.31529	-0.00117988	2	-3.6353e-05	3.72003e-07
2	1	0	0	1	360.851	-0.31177	-0.311983	-0.00114692	2	-3.63901e-05	3.5782e-07
2	1	0	1	1	360.884	-0.308432	-0.308606	-0.00111357	2	-3.64261e-05	3.43654e-07
2	1	0	1	1	360.917	-0.305106	-0.305295	-0.00108058	2	-3.64607e-05	3.29897e-07
2	1	0	0	1	360.951	-0.301767	-0.301965	-0.00105063	2	-3.64945e-05	3.17252e-07
2	1	0	0	1	360.984	-0.298449	-0.298626	-0.0010184	2	-3.65271e-05	3.0412e-07
2	1	0	1	1	361.017	-0.29511	-0.295266	-0.000985216	2	-3.65588e-05	2.90901e-07
2	1	0	0	1	361.051	-0.291771	-0.291927	-0.00095628	2	-3.65894e-05	2.79164e-07
2	1	0	0	1	361.084	-0.288446	-0.288594	-0.000924636	2	-3.66189e-05	2.66844e-07
2	1	0	1	1	361.117	-0.285107	-0.285265	-0.000895205	2	-3.66475e-05	2.55371e-07
2	1	0	1	1	361.151	-0.281788	-0.281944	-0.000865602	2	-3.6675e-05	2.44051e-07
2	1	0	0	1	361.184	-0.27845	-0.278612	-0.0008358	2	-3.67016e-05	2.32864e-07
2	1	0	1	1	361.217	-0.275111	-0.275281	-0.000808329	2	-3.67273e-05	2.22517e-07
2	1	0	1	1	361.251	-0.271788	-0.271977	-0.000777232	2	-3.67519e-05	2.11389e-07
2	1	0	0	1	361.284	-0.268447	-0.268615	-0.000748982	2	-3.67757e-05	2.01188e-07
2	1	0	0	1	361.317	-0.265128	-0.265307	-0.000721003	2	-3.67983e-05	1.91287e-07
2	1	0	1	1	361.351	-0.261789	-0.26196	-0.000692441	2	-3.68202e-05	1.81392e-07
2	1	0	0	1	361.384	-0.258451	-0.25862	-0.00066565	2	-3.68411e-05	1.72151e-07
2	1	0	0	1	361.417	-0.25513	-0.255314	-0.000639059	2	-3.6861e-05	1.63161e-07
2	1	0	1	1	361.451	-0.251787	-0.251974	-0.000609732	2	-3.68801e-05	1.53636e-07
2	1	0	1	1	361.484	-0.248468	-0.248657	-0.000584193	2	-3.68982e-05	1.45264e-07
2	1	0	0	1	361.517	-0.245129	-0.245299	-0.000556162	2	-3.69155e-05	1.36426e-07
2	1	0	1	1	361.566	-0.240292	-0.240458	-0.000506656	2	-3.69401e-05	1.2183e-07
2	1	0	1	1	361.614	-0.235466	-0.235599	-0.000439297	2	-3.69633e-05	1.03498e-07
2	1	0	0	1	361.647	-0.232127	-0.232281	-0.000414049	2	-3.69772e-05	9.61759e-08
2	1	0	0	1	361.68	-0.228809	-0.228964	-0.000387063	2	-3.69901e-05	8.86237e-08
2	1	0	1	1	361.714	-0.22547	-0.225608	-0.000360429	2	-3.70022e-05	8.13156e-08
2	1	0	0	1	361.747	-0.222131	-0.22227	-0.00033274	2	-3.70133e-05	7.39582e-08
2	1	0	0	1	361.78	-0.218808	-0.21896	-0.000307122	2	-3.70236e-05	6.72475e-08
2	1	0	1	1	361.814	-0.215467	-0.215609	-0.000281216	2	-3.7033e-05	6.06326e-08
2	1	0	1	1	361.847	-0.212148	-0.212299	-0.000253718	2	-3.70415e-05	5.38641e-08
2	1	0	0	1	361.88	-0.20881	-0.208915	-0.000227643	2	-3.70491e-05	4.75581e-08
2	1	0	1	1	361.914	-0.205471	-0.205607	-0.000202467	2	-3.70559e-05	4.16285e-08
2	1	0	1	1	361.947	-0.202148	-0.202268	-0.000174026	2	-3.70618e-05	3.51999e-08
2	1	0	0	1	361.98	-0.198807	-0.198921	-0.000148089	2	-3.70668e-05	2.94582e-08
2	1	0	0	1	362.014	-0.195488	-0.195608	-0.000122828	2	-3.70709e-05	2.40261e-08
2	1	0	1	1	362.047	-0.192149	-0.19226	-9.50958e-05	2	-3.70741e-05	1.82831e-08
2	1	0	0	1	362.08	-0.18881	-0.18894	-6.82232e-05	2	-3.70764e-05	1.28901e-08
2	1	0	0	1	362.114	-0.18549	-0.185621	-4.10142e-05	2	-3.70778e-05	7.61309e-09
2	1	0	1	1	362.147	-0.182146	-0.182277	-1.382e-05	2	-3.70784e-05	2.51906e-09
2	1	0	1	1	362.18	-0.178828	-0.178949	1.452e-05	2	-3.7078e-05	2.59835e-09
2	1	0	0	1	362.214	-0.175489	-0.175601	4.07901e-05	2	-3.70766e-05	7.16278e-09
2	1	0	1	1	362.247	-0.17215	-0.172284	6.92859e-05	2	-3.70744e-05	1.19369e-08
2	1	0	1	1	362.28	-0.168831	-0.168968	9.71065e-05	2	-3.70712e-05	1.64078e-08
2	1	0	0	1	362.314	-0.165486	-0.165606	0.00012531	2	-3.70671e-05	2.07521e-08
2	1	0	0	1	362.347	-0.162167	-0.162282	0.000152518	2	-3.70621e-05	2.47509e-08
2	1	0	1	1	362.38	-0.158829	-0.158926	0.000180877	2	-3.70561e-05	2.87461e-08
2	1	0	0	1	362.414	-0.15549	-0.155573	0.00020891	2	-3.70492e-05	3.25008e-08
2	1	0	0	1	362.447	-0.152171	-0.152274	0.000235258	2	-3.70415e-05	3.58237e-08
2	1	0	1	1	362.48	-0.148828	-0.148927	0.000263152	2	-3.70327e-05	3.91904e-08
2	1	0	1	1	362.513	-0.145507	-0.145621	0.000291073	2	-3.70231e-05	4.23862e-08
2	1	0	0	1	362.547	-0.142168	-0.142282	0.000317783	2	-3.70126e-05	4.52148e-08
2	1	0	1	1	362.58	-0.13883	-0.138941	0.000344629	2	-3.70011e-05	4.7883e-08
2	1	0	1	1	362.613	-0.135511	-0.13561	0.00037366	2	-3.69888e-05	5.06722e-08
2	1	0	0	1	362.647	-0.13217	-0.132263	0.000400247	2	-3.69755e-05	5.29379e-08
2	1	0	0	1	362.68	-0.128847	-0.128937	0.0004288	2	-3.69613e-05	5.52884e-08
2	1	0	1	1	362.713	-0.125508	-0.125585	0.000456105	2	-3.69461e-05	5.72798e-08
2	1	0	0	1	362.747	-0.122169	-0.122224	0.000482128	2	-3.693e-05	5.89276e-08
2	1	0	0	1	362.78	-0.11885	-0.118929	0.000510096	2	-3.69132e-05	6.06653e-08
2	1	0	1	1	362.813	-0.115512	-0.115585	0.000538877	2	-3.68952e-05	6.22861e-08
2	1	0	1	1	362.847	-0.112186	-0.112233	0.000565552	2	-3.68765e-05	6.34736e-08
2	1	0	0	1	362.88	-0.108848	-0.108922	0.000592816	2	-3.68568e-05	6.45708e-08
2	1	0	1	1	362.913	-0.105509	-0.105567	0.00061782	2	-3.68362e-05	6.52214e-08
2	1	0	1	1	362.947	-0.10219	-0.102267	0.000647594	2	-3.68147e-05	6.62275e-08
2	1	0	0	1	362.98	-0.0988514	-0.0989364	0.000672596	2	-3.67923e-05	6.65442e-08
2	1	0	0	1	363.013	-0.095526	-0.095602	0.00070082	2	-3.67691e-05	6.69998e-08
2	1	0	1	1	363.047	-0.0921873	-0.0922532	0.00072757	2	-3.67448e-05	6.71207e-08
2	1	0	0	1	363.08	-0.0888486	-0.088929	0.00075237	2	-3.67197e-05	6.69076e-08
2	1	0	0	1	363.113	-0.0855298	-0.0856145	0.00078004	2	-3.66939e-05	6.67828e-08
2	1	0	1	1	363.147	-0.0821911	-0.0822736	0.000805219	2	-3.6667e-05	6.62483e-08
2	1	0	0	1	363.18	-0.0788568	-0.0789332	0.000829066	2	-3.66394e-05	6.54409e-08
2	1	0	0	1	363.213	-0.075527	-0.0756201	0.000853216	2	-3.6611e-05	6.45203e-08
2	1	0	1	1	363.247	-0.0721883	-0.072254	0.000878481	2	-3.65817e-05	6.34738e-08
2	1	0	1	1	363.28	-0.0688695	-0.0689229	0.00089863	2	-3.65518e-05	6.19362e-08
2	1	0	0	1	363.313	-0.0655308	-0.0655866	0.000919905	2	-3.6521e-05	6.03334e-08
2	1	0	1	1	363.346	-0.0621987	-0.0622553	0.000939423	2	-3.64897e-05	5.84841e-08
2	1	0	1	1	363.38	-0.0588667	-0.0589225	0.000959385	2	-3.64576e-05	5.65293e-08
2	1	0	0	1	363.413	-0.0555279	-0.0555771	0.000976665	2	-3.64249e-05	5.42803e-08
2	1	0	0	1	363.463	-0.0505397	-0.05066	0.000973309	2	-3.63744e-05	4.93079e-08
2	1	0	0	1	363.513	-0.0455407	-0.0456794	0.000985356	2	-3.6323e-05	4.50105e-08
2	1	0	0	1	363.546	-0.0422064	-0.0423218	0.0010012	2	-3.62882e-05	4.23728e-08
2	1	0	1	1	363.58	-0.0388676	-0.0389749	0.00101337	2	-3.62528e-05	3.94959e-08
2	1	0	1	1	363.613	-0.0355489	-0.0356535	0.00102409	2	-3.62172e-05	3.65126e-08
2	1	0	0	1	363.646	-0.0322102	-0.032321	0.0010341	2	-3.61811e-05	3.34232e-08
2	1	0	1	1	363.68	-0.0288714	-0.0289802	0.00104458	2	-3.61447e-05	3.0272e-08
2	1	0	1	1	363.713	-0.025546	-0.0256549	0.00105092	2	-3.61082e-05	2.69613e-08
2	1	0	0	1	363.746	-0.0222073	-0.022306	0.00105803	2	-3.60713e-05	2.36003e-08
2	1	0	0	1	363.78	-0.0188886	-0.0190041	0.00106198	2	-3.60343e-05	2.0182e-08
2	1	0	1	1	363.813	-0.0155499	-0.0156596	0.00106801	2	-3.5997e-05	1.67246e-08
2	1	0	0	1	363.846	-0.0122111	-0.0123499	0.00107245	2	-3.59595e-05	1.32447e-08
2	1	0	0	1	363.88	-0.00888573	-0.00900384	0.00107654	2	-3.59221e-05	9.69297e-09
2	1	0	1	1	363.913	-0.005547	-0.00567673	0.00107822	2	-3.58844e-05	6.12077e-09
2	1	0	1	1	363.946	-0.00222827	-0.00236046	0.00108025	2	-3.58469e-05	2.54988e-09
2	1	0	0	1	363.98	0.00112273	0.000996926	0.00108221	2	-3.5809e-05	1.07888e-09
2	1	0	1	1	364.013	0.00444919	0.00434939	0.00108329	2	-3.57711e-05	4.71164e-09
2	1	0	1	1	364.046	0.00777236	0.00767663	0.0010819	2	-3.57334e-05	8.30532e-09
2	1	0	0	1	364.08	0.0111133	0.0110348	0.00108145	2	-3.56956e-05	1.19335e-08
2	1	0	0	1	364.113	0.014432	0.0143631	0.00108054	2	-3.56579e-05	1.55199e-08
2	1	0	1	1	364.146	0.0177708	0.0176776	0.00107962	2	-3.56201e-05	1.9085e-08
2	1	0	0	1	364.18	0.0211095	0.0210165	0.0010771	2	-3.55824e-05	2.26369e-08
2	1	0	0	1	364.213	0.0244304	0.0243217	0.00107716	2	-3.55449e-05	2.61983e-08
2	1	0	1	1	364.246	0.0277736	0.0276712	0.00107495	2	-3.55073e-05	2.97451e-08
2	1	0	1	1	364.279	0.0310924	0.0309902	0.00107223	2	-3.54699e-05	3.32287e-08
2	1	0	0	1	364.313	0.0344311	0.0343453	0.00107097	2	-3.54324e-05	3.67827e-08
2	1	0	1	1	364.346	0.0377698	0.0376846	0.00106749	2	-3.53949e-05	4.02279e-08
2	1	0	1	1	364.379	0.0410885	0.0409852	0.0010651	2	-3.53578e-05	4.36533e-08
2	1	0	0	1	364.413	0.0444339	0.0443545	0.00106379	2	-3.53205e-05	4.71838e-08
2	1	0	0	1	364.446	0.0477527	0.0476793	0.00106169	2	-3.52835e-05	5.06207e-08
2	1	0	1	1	364.479	0.0510914	0.0510188	0.00105986	2	-3.52464e-05	5.40729e-08
2	1	0	0	1	364.513	0.0544301	0.0543599	0.00105574	2	-3.52093e-05	5.73902e-08
2	1	0	0	1	364.546	0.0577488	0.0576915	0.00105461	2	-3.51725e-05	6.08422e-08
2	1	0	1	1	364.579	0.061092	0.0610234	0.00105157	2	-3.51357e-05	6.41706e-08
2	1	0	1	1	364.613	0.064413	0.0643398	0.00104861	2	-3.50991e-05	6.74675e-08
2	1	0	0	1	364.646	0.0677517	0.0676688	0.00104827	2	-3.50623e-05	7.09349e-08
2	1	0	1	1	364.679	0.0710904	0.0710112	0.00104537	2	-3.50256e-05	7.42332e-08
2	1	0	1	1	364.713	0.0744091	0.0743114	0.00104447	2	-3.49892e-05	7.76161e-08
2	1	0	0	1	364.746	0.0777501	0.077657	0.00104387	2	-3.49527e-05	8.10638e-08
2	1	0	0	1	364.779	0.0810733	0.0809668	0.00104011	2	-3.49163e-05	8.42144e-08
2	1	0	1	1	364.813	0.084412	0.0843058	0.00103918	2	-3.48799e-05	8.76091e-08
2	1	0	0	1	364.846	0.0877507	0.0876348	0.00103876	2	-3.48435e-05	9.10311e-08
2	1	0	0	1	364.879	0.0910695	0.090984	0.00103711	2	-3.48073e-05	9.43609e-08
2	1	0	1	1	364.913	0.0944104	0.0943034	0.00103722	2	-3.4771e-05	9.78133e-08
2	1	0	1	1	364.946	0.0977336	0.0976398	0.00103687	2	-3.47348e-05	1.0124e-07
2	1	0	0	1	364.964	0.0995729	0.0994483	0.00103638	2	-3.47148e-05	1.03066e-07
2	0	0	1	1	364.968	0.0999061	0.0998146	0.00102816	2	-3.47107e-05	1.02626e-07
2	0	0	0	1	364.986	0.0980668	0.0979763	0.000785678	2	-3.46969e-05	7.69778e-08
2	0	0	0	1	365.02	0.0947436	0.0946333	0.000687042	2	-3.46742e-05	6.5017e-08
2	0	0	1	1	365.053	0.0914027	0.091296	0.000617376	2	-3.46542e-05	5.63639e-08
2	0	0	1	1	365.086	0.0880839	0.087979	0.000555776	2	-3.46365e-05	4.88967e-08
2	0	0	0	1	365.12	0.0847452	0.0846507	0.000503043	2	-3.46206e-05	4.25829e-08
2	0	0	1	1	365.17	0.079745	0.0796447	0.000414967	2	-3.46012e-05	3.305e-08
2	0	0	0	1	365.22	0.0747424	0.0745913	0.00031553	2	-3.45843e-05	2.35358e-08
2	0	0	0	1	365.253	0.0714236	0.0712529	0.000273368	2	-3.4575e-05	1.94783e-08
2	0	0	1	1	365.286	0.0680849	0.0679384	0.000231342	2	-3.4567e-05	1.5717e-08
2	0	0	0	1	365.32	0.0647462	0.0646158	0.000192141	2	-3.45603e-05	1.24154e-08
2	0	0	0	1	365.353	0.0614252	0.061282	0.00015342	2	-3.4555e-05	9.40187e-09
2	0	0	1	1	365.386	0.0580821	0.0579729	0.000116722	2	-3.45509e-05	6.76671e-09
2	0	0	1	1	365.419	0.0547633	0.0546271	7.99448e-05	2	-3.4548e-05	4.36715e-09
2	0	0	0	1	365.453	0.0514246	0.0512646	4.55289e-05	2	-3.45464e-05	2.33402e-09
2	0	0	1	1	365.486	0.0480859	0.0479337	1.17867e-05	2	-3.45459e-05	5.64981e-10
2	0	0	1	1	365.519	0.0447671	0.0446025	-2.25188e-05	2	-3.45464e-05	1.0044e-09
2	0	0	0	1	365.553	0.0414217	0.0412332	-5.4314e-05	2	-3.45481e-05	2.23954e-09
2	0	0	0	1	365.586	0.038103	0.0379325	-8.38108e-05	2	-3.45508e-05	3.17916e-09
2	0	0	1	1	365.619	0.0347643	0.034581	-0.000117367	2	-3.45546e-05	4.05865e-09
2	0	0	0	1	365.653	0.0314256	0.0312283	-0.000145578	2	-3.45594e-05	4.54615e-09
2	0	0	0	1	365.686	0.0281068	0.027913	-0.000175106	2	-3.45652e-05	4.88774e-09
2	0	0	1	1	365.719	0.0247637	0.0245596	-0.000204688	2	-3.45719e-05	5.02706e-09
2	0	0	1	1	365.753	0.0214427	0.0212647	-0.000231747	2	-3.45796e-05	4.92803e-09
2	0	0	0	1	365.786	0.018104	0.0179336	-0.000259615	2	-3.45882e-05	4.65583e-09
2	0	0	1	1	365.819	0.0147653	0.0145989	-0.000287733	2	-3.45978e-05	4.20059e-09
2	0	0	1	1	365.853	0.0114465	0.011251	-0.000314789	2	-3.46082e-05	3.54168e-09
2	0	0	0	1	365.886	0.00810557	0.00791577	-0.000340806	2	-3.46195e-05	2.69774e-09
2	0	0	0	1	365.919	0.00478239	0.00459698	-0.000366929	2	-3.46317e-05	1.68676e-09
2	0	0	1	1	365.953	0.00144367	0.00122117	-0.000393914	2	-3.46448e-05	4.81036e-10
2	0	0	0	1	365.986	-0.00189506	-0.00211986	-0.000417277	2	-3.46588e-05	8.84569e-10
2	0	0	0	1	366.019	-0.00521379	-0.00543491	-0.000441913	2	-3.46734e-05	2.40176e-09
2	0	0	1	1	366.053	-0.00855252	-0.00877273	-0.000467279	2	-3.4689e-05	4.09932e-09
2	0	0	1	1	366.086	-0.0118779	-0.0121058	-0.000490803	2	-3.47053e-05	5.94156e-09
2	0	0	0	1	366.119	-0.0152166	-0.0154437	-0.000513605	2	-3.47226e-05	7.93196e-09
2	0	0	1	1	366.153	-0.0185554	-0.0187815	-0.000538173	2	-3.47405e-05	1.01077e-08
2	0	0	1	1	366.186	-0.0218741	-0.0220809	-0.000559938	2	-3.47591e-05	1.23639e-08
2	0	0	0	1	366.219	-0.0252128	-0.0254279	-0.000582189	2	-3.47786e-05	1.48038e-08
2	0	0	0	1	366.252	-0.0285382	-0.0287315	-0.000605897	2	-3.47988e-05	1.74083e-08
2	0	0	1	1	366.286	-0.031877	-0.0320992	-0.000628354	2	-3.48198e-05	2.01697e-08
2	0	0	0	1	366.319	-0.0352157	-0.0354195	-0.000649606	2	-3.48415e-05	2.30087e-08
2	0	0	0	1	366.352	-0.0385344	-0.0387452	-0.000671602	2	-3.48639e-05	2.60214e-08
2	0	0	1	1	366.386	-0.0418732	-0.0421086	-0.000693945	2	-3.48871e-05	2.92211e-08
2	0	0	0	1	366.419	-0.0452075	-0.0454514	-0.00071533	2	-3.49109e-05	3.25128e-08
2	0	0	0	1	366.452	-0.0485373	-0.0487612	-0.000735323	2	-3.49355e-05	3.58552e-08
2	0	0	1	1	366.486	-0.051876	-0.0521176	-0.000757858	2	-3.49608e-05	3.94977e-08
2	0	0	1	1	366.519	-0.0551947	-0.0554394	-0.000777773	2	-3.49867e-05	4.31193e-08
2	0	0	0	1	366.552	-0.0585335	-0.05878	-0.000797318	2	-3.50135e-05	4.68663e-08
2	0	0	1	1	366.586	-0.0618655	-0.0621141	-0.000817762	2	-3.50408e-05	5.07945e-08
2	0	0	1	1	366.619	-0.0651976	-0.0654205	-0.000839262	2	-3.50688e-05	5.4905e-08
2	0	0	0	1	366.652	-0.0685363	-0.0687629	-0.000858232	2	-3.50975e-05	5.90145e-08
2	0	0	0	1	366.686	-0.0718551	-0.0720892	-0.000879444	2	-3.51268e-05	6.33984e-08
2	0	0	1	1	366.719	-0.0751938	-0.0754432	-0.000899273	2	-3.51569e-05	6.7844e-08
2	0	0	0	1	366.752	-0.0785236	-0.0787705	-0.000919046	2	-3.51875e-05	7.23937e-08
2	0	0	0	1	366.786	-0.0818579	-0.0821066	-0.000939207	2	-3.52189e-05	7.71151e-08
2	0	0	1	1	366.819	-0.0851966	-0.0854219	-0.000956583	2	-3.52509e-05	8.17131e-08
2	0	0	1	1	366.852	-0.0885154	-0.0887488	-0.000976208	2	-3.52834e-05	8.66373e-08
2	0	0	0	1	366.902	-0.0935254	-0.093698	-0.000975965	2	-3.53342e-05	9.1446e-08
2	0	0	1	1	366.952	-0.0985182	-0.0986574	-0.000993301	2	-3.53857e-05	9.79965e-08
2	0	0	0	1	366.986	-0.101857	-0.101993	-0.00101192	2	-3.5421e-05	1.03209e-07
2	0	0	0	1	367.019	-0.105176	-0.105302	-0.00103035	2	-3.54566e-05	1.08498e-07
2	0	0	1	1	367.052	-0.108514	-0.108645	-0.00104904	2	-3.5493e-05	1.13973e-07
2	0	0	0	1	367.086	-0.111853	-0.111964	-0.00106815	2	-3.55301e-05	1.19594e-07
2	0	0	0	1	367.119	-0.115179	-0.115314	-0.00108841	2	-3.55676e-05	1.25509e-07
2	0	0	1	1	367.152	-0.118517	-0.118649	-0.00110614	2	-3.5606e-05	1.31242e-07
2	0	0	1	1	367.185	-0.121836	-0.121972	-0.00112398	2	-3.56448e-05	1.37093e-07
2	0	0	0	1	367.219	-0.125175	-0.125304	-0.00114564	2	-3.56844e-05	1.43554e-07
2	0	0	1	1	367.252	-0.128513	-0.128649	-0.00116343	2	-3.57247e-05	1.49674e-07
2	0	0	1	1	367.285	-0.131837	-0.131983	-0.0011816	2	-3.57654e-05	1.55952e-07
2	0	0	0	1	367.319	-0.135178	-0.13531	-0.00120096	2	-3.58069e-05	1.62502e-07
2	0	0	0	1	367.352	-0.138496	-0.138645	-0.00122085	2	-3.58489e-05	1.69266e-07
2	0	0	1	1	367.385	-0.141835	-0.141987	-0.00124075	2	-3.58917e-05	1.7617e-07
2	0	0	0	1	367.419	-0.145174	-0.145314	-0.00126152	2	-3.59353e-05	1.83317e-07
2	0	0	0	1	367.452	-0.148495	-0.148644	-0.00128109	2	-3.59792e-05	1.90426e-07
2	0	0	1	1	367.485	-0.151838	-0.151984	-0.00130203	2	-3.60241e-05	1.97889e-07
2	0	0	1	1	367.519	-0.155157	-0.15528	-0.0013225	2	-3.60694e-05	2.05358e-07
2	0	0	0	1	367.552	-0.158495	-0.15864	-0.00134646	2	-3.61157e-05	2.13602e-07
2	0	0	1	1	367.585	-0.161834	-0.161988	-0.00136846	2	-3.61627e-05	2.21674e-07
2	0	0	1	1	367.619	-0.165153	-0.165303	-0.00138993	2	-3.62103e-05	2.29761e-07
2	0	0	0	1	367.652	-0.168498	-0.168664	-0.00141448	2	-3.62588e-05	2.38571e-07
2	0	0	0	1	367.685	-0.171817	-0.171981	-0.00143699	2	-3.63079e-05	2.47136e-07
2	0	0	1	1	367.719	-0.175156	-0.175307	-0.00146155	2	-3.63581e-05	2.5622e-07
2	0	0	0	1	367.752	-0.178494	-0.178656	-0.00148661	2	-3.64091e-05	2.65591e-07
2	0	0	0	1	367.785	-0.181813	-0.181976	-0.0015117	2	-3.64606e-05	2.75094e-07
2	0	0	1	1	367.819	-0.185156	-0.18532	-0.00153768	2	-3.65133e-05	2.84963e-07
2	0	0	1	1	367.852	-0.188477	-0.188647	-0.00156361	2	-3.65665e-05	2.9497e-07
2	0	0	0	1	367.885	-0.191816	-0.191975	-0.00158934	2	-3.66209e-05	3.05113e-07
2	0	0	1	1	367.919	-0.195155	-0.195317	-0.0016167	2	-3.66762e-05	3.15768e-07
2	0	0	1	1	367.952	-0.198473	-0.198625	-0.00164287	2	-3.6732e-05	3.26315e-07
2	0	0	0	1	367.985	-0.201814	-0.201972	-0.00167142	2	-3.67892e-05	3.37579e-07
2	0	0	0	1	368.018	-0.205138	-0.205305	-0.00169803	2	-3.68468e-05	3.48614e-07
2	0	0	1	1	368.052	-0.208476	-0.208635	-0.00172477	2	-3.69057e-05	3.59847e-07
2	0	0	0	1	368.085	-0.211815	-0.211999	-0.00175477	2	-3.69656e-05	3.72009e-07
2	0	0	0	1	368.118	-0.215134	-0.215327	-0.00178116	2	-3.7026e-05	3.83531e-07
2	0	0	1	1	368.152	-0.218475	-0.218649	-0.00181017	2	-3.70878e-05	3.95793e-07
2	0	0	1	1	368.185	-0.221798	-0.221975	-0.00183868	2	-3.71501e-05	4.08142e-07
2	0	0	0	1	368.218	-0.225137	-0.225318	-0.00186705	2	-3.72137e-05	4.2068e-07
2	0	0	1	1	368.252	-0.228475	-0.228655	-0.00189696	2	-3.72783e-05	4.33751e-07
2	0	0	1	1	368.285	-0.231794	-0.231971	-0.00192535	2	-3.73435e-05	4.46627e-07
2	0	0	0	1	368.318	-0.235133	-0.235292	-0.00195433	2	-3.74101e-05	4.59839e-07
2	0	0	0	1	368.352	-0.238458	-0.238627	-0.00198474	2	-3.74772e-05	4.73612e-07
2	0	0	1	1	368.385	-0.241797	-0.241967	-0.00201596	2	-3.75457e-05	4.87795e-07
2	0	0	0	1	368.418	-0.245136	-0.245317	-0.00204559	2	-3.76153e-05	5.01818e-07
2	0	0	0	1	368.452	-0.248454	-0.248642	-0.00207665	2	-3.76855e-05	5.16342e-07
2	0	0	1	1	368.485	-0.251793	-0.25196	-0.00210774	2	-3.77572e-05	5.31066e-07
2	0	0	0	1	368.518	-0.255127	-0.255295	-0.0021386	2	-3.78296e-05	5.45975e-07
2	0	0	0	1	368.552	-0.258457	-0.258624	-0.00217087	2	-3.79031e-05	5.61437e-07
2	0	0	1	1	368.585	-0.261796	-0.261938	-0.0022026	2	-3.79779e-05	5.76945e-07
2	0	0	1	1	368.618	-0.265115	-0.26529	-0.00223652	2	-3.80533e-05	5.93328e-07
2	0	0	0	1	368.652	-0.268453	-0.268615	-0.00226672	2	-3.81303e-05	6.08876e-07
2	0	0	1	1	368.685	-0.271786	-0.271938	-0.00230199	2	-3.82081e-05	6.26e-07
2	0	0	1	1	368.718	-0.275118	-0.275274	-0.00233516	2	-3.8287e-05	6.42809e-07
2	0	0	0	1	368.752	-0.278456	-0.278609	-0.00236991	2	-3.83673e-05	6.60278e-07
2	0	0	0	1	368.785	-0.281775	-0.281915	-0.00240312	2	-3.84483e-05	6.77478e-07
2	0	0	1	1	368.818	-0.285114	-0.285252	-0.00243909	2	-3.85309e-05	6.95757e-07
2	0	0	0	1	368.851	-0.288444	-0.288582	-0.00247474	2	-3.86145e-05	7.14165e-07
2	0	0	0	1	368.885	-0.291778	-0.29192	-0.00250989	2	-3.86993e-05	7.32687e-07
2	0	0	1	1	368.918	-0.295117	-0.295257	-0.00254579	2	-3.87854e-05	7.51663e-07
2	0	0	1	1	368.951	-0.298435	-0.298604	-0.00258338	2	-3.88724e-05	7.71409e-07
2	0	0	0	1	368.985	-0.301774	-0.30194	-0.00261929	2	-3.8961e-05	7.90866e-07
2	0	0	1	1	369.018	-0.305104	-0.30527	-0.00265824	2	-3.90506e-05	8.11481e-07
2	0	0	1	1	369.051	-0.308438	-0.308615	-0.00269663	2	-3.91416e-05	8.32221e-07
2	0	0	0	1	369.085	-0.311777	-0.311982	-0.00273619	2	-3.9234e-05	8.53642e-07
2	0	0	0	1	369.118	-0.315096	-0.315277	-0.00277441	2	-3.93272e-05	8.74708e-07
2	0	0	1	1	369.151	-0.318434	-0.318625	-0.00281232	2	-3.94223e-05	8.96076e-07
2	0	0	0	1	369.185	-0.321773	-0.321952	-0.00285448	2	-3.95187e-05	9.19006e-07
2	0	0	0	1	369.218	-0.325099	-0.325272	-0.00289508	2	-3.96159e-05	9.41688e-07
2	0	0	1	1	369.251	-0.328437	-0.328607	-0.00293624	2	-3.9715e-05	9.64867e-07
2	0	0	1	1	369.285	-0.331756	-0.331938	-0.00297829	2	-3.9815e-05	9.88606e-07
2	0	0	0	1	369.318	-0.335095	-0.335274	-0.00301982	2	-3.99169e-05	1.01247e-06
2	0	0	1	1	369.351	-0.338433	-0.338623	-0.00306561	2	-4.00202e-05	1.03809e-06
2	0	0	1	1	369.385	-0.341757	-0.34197	-0.00310837	2	-4.01245e-05	1.06297e-06
2	0	0	0	1	369.418	-0.345098	-0.345305	-0.00315176	2	-4.02308e-05	1.08832e-06
2	0	0	0	1	369.451	-0.348416	-0.348641	-0.00319646	2	-4.03379e-05	1.11441e-06
2	0	0	1	1	369.485	-0.351755	-0.351988	-0.00324142	2	-4.04472e-05	1.14094e-06
2	0	0	0	1	369.518	-0.355094	-0.355313	-0.00328721	2	-4.0558e-05	1.16799e-06
2	0	0	0	1	369.551	-0.358415	-0.358635	-0.00333454	2	-4.06696e-05	1.19588e-06
2	0	0	1	1	369.585	-0.361758	-0.361967	-0.0033791	2	-4.07835e-05	1.22312e-06
2	0	0	1	1	369.618	-0.365077	-0.365288	-0.00342794	2	-4.08982e-05	1.25218e-06
2	0	0	0	1	369.651	-0.368415	-0.36862	-0.00347505	2	-4.10153e-05	1.28097e-06
2	0	0	1	1	369.685	-0.371754	-0.371947	-0.00352297	2	-4.1134e-05	1.31036e-06
2	0	0	1	1	369.718	-0.375073	-0.375267	-0.00357218	2	-4.12535e-05	1.34052e-06
2	0	0	0	1	369.751	-0.378418	-0.378632	-0.00362104	2	-4.13754e-05	1.37104e-06
2	0	0	0	1	369.784	-0.381737	-0.381954	-0.00367197	2	-4.14982e-05	1.40253e-06
2	0	0	1	1	369.818	-0.385076	-0.385308	-0.00372363	2	-4.16236e-05	1.43474e-06
2	0	0	0	1	369.851	-0.388414	-0.388647	-0.00377118	2	-4.17505e-05	1.46566e-06
2	0	0	0	1	369.884	-0.391733	-0.391976	-0.00382557	2	-4.18783e-05	1.49953e-06
2	0	0	1	1	369.918	-0.395076	-0.395329	-0.00387831	2	-4.20087e-05	1.53321e-06
2	0	0	1	1	369.951	-0.398397	-0.398646	-0.00392632	2	-4.214e-05	1.56521e-06
2	0	0	0	1	369.984	-0.401736	-0.401965	-0.00398012	2	-4.22738e-05	1.59987e-06
2	0	0	1	1	370.018	-0.405075	-0.405311	-0.00403137	2	-4.24094e-05	1.63396e-06
2	0	0	1	1	370.051	-0.408393	-0.408621	-0.0040824	2	-4.25458e-05	1.66815e-06
2	0	0	0	1	370.084	-0.411737	-0.411943	-0.00413866	2	-4.26849e-05	1.70489e-06
2	0	0	0	1	370.118	-0.415058	-0.415296	-0.00418969	2	-4.2825e-05	1.73996e-06
2	0	0	1	1	370.151	-0.418396	-0.418632	-0.0042429	2	-4.29676e-05	1.77621e-06
2	0	0	0	1	370.184	-0.421735	-0.421975	-0.00429829	2	-4.3112e-05	1.81377e-06
2	0	0	0	1	370.218	-0.425054	-0.425286	-0.00435029	2	-4.32573e-05	1.85012e-06
2	0	0	1	1	370.251	-0.428395	-0.428605	-0.0044041	2	-4.34053e-05	1.88762e-06
2	0	0	1	1	370.284	-0.431718	-0.431917	-0.00445942	2	-4.35542e-05	1.9261e-06
2	0	0	0	1	370.318	-0.435057	-0.435276	-0.00451202	2	-4.37058e-05	1.96398e-06
2	0	0	1	1	370.351	-0.438395	-0.438608	-0.00456603	2	-4.38592e-05	2.0027e-06
2	0	0	1	1	370.384	-0.441714	-0.44193	-0.00461784	2	-4.40134e-05	2.04076e-06
2	0	0	0	1	370.418	-0.445053	-0.445259	-0.00467347	2	-4.41704e-05	2.08091e-06
2	0	0	0	1	370.451	-0.448378	-0.448582	-0.00472714	2	-4.43282e-05	2.12051e-06
2	0	0	1	1	370.484	-0.451717	-0.451898	-0.00478177	2	-4.44888e-05	2.16087e-06
2	0	0	0	1	370.518	-0.455056	-0.455243	-0.0048372	2	-4.46512e-05	2.2021e-06
2	0	0	0	1	370.551	-0.458374	-0.458583	-0.0048888	2	-4.48145e-05	2.24192e-06
2	0	0	1	1	370.584	-0.461713	-0.461914	-0.0049472	2	-4.49805e-05	2.28518e-06
2	0	0	0	1	370.617	-0.465047	-0.465233	-0.00500065	2	-4.51478e-05	2.32647e-06
2	0	0	0	1	370.651	-0.468377	-0.468596	-0.0050535	2	-4.5317e-05	2.36805e-06
2	0	0	1	1	370.684	-0.471716	-0.471938	-0.00511016	2	-4.54885e-05	2.41168e-06
2	0	0	1	1	370.717	-0.475035	-0.475255	-0.00516236	2	-4.56608e-05	2.45344e-06
2	0	0	0	1	370.751	-0.478373	-0.478604	-0.00521597	2	-4.58359e-05	2.49638e-06
2	0	0	1	1	370.784	-0.481705	-0.481946	-0.00527058	2	-4.60123e-05	2.54013e-06
2	0	0	1	1	370.817	-0.485038	-0.48525	-0.00532329	2	-4.61904e-05	2.58312e-06
2	0	0	0	1	370.851	-0.488376	-0.488585	-0.00537552	2	-4.63709e-05	2.6264e-06
2	0	0	0	1	370.884	-0.491695	-0.491923	-0.00543033	2	-4.65521e-05	2.6713e-06
2	0	0	1	1	370.917	-0.495034	-0.495255	-0.00548677	2	-4.67362e-05	2.71735e-06
2	0	0	0	1	370.951	-0.498364	-0.498589	-0.00553968	2	-4.69215e-05	2.76202e-06
2	0	0	0	1	370.984	-0.501698	-0.501923	-0.00559253	2	-4.71087e-05	2.80702e-06
2	0	0	1	1	371.017	-0.505037	-0.505264	-0.00564981	2	-4.72983e-05	2.85465e-06
2	0	0	1	1	371.051	-0.508355	-0.508586	-0.00570391	2	-4.74885e-05	2.90093e-06
2	0	0	0	1	371.084	-0.511694	-0.511927	-0.00575879	2	-4.76818e-05	2.94808e-06
2	0	0	1	1	371.117	-0.515024	-0.51526	-0.0058142	2	-4.78762e-05	2.99583e-06
2	0	0	1	1	371.151	-0.518358	-0.518574	-0.00587017	2	-4.80726e-05	3.04412e-06
2	0	0	0	1	371.184	-0.521697	-0.521911	-0.00592306	2	-4.82713e-05	3.09131e-06
2	0	0	0	1	371.217	-0.525016	-0.525254	-0.00598105	2	-4.84707e-05	3.14157e-06
2	0	0	1	1	371.251	-0.528354	-0.528571	-0.00603925	2	-4.86731e-05	3.19217e-06
2	0	0	0	1	371.284	-0.531693	-0.531908	-0.00609589	2	-4.88776e-05	3.24245e-06
2	0	0	0	1	371.317	-0.535018	-0.535237	-0.00615504	2	-4.90827e-05	3.29441e-06
2	0	0	1	1	371.351	-0.538357	-0.538558	-0.00621426	2	-4.92911e-05	3.34674e-06
2	0	0	1	1	371.384	-0.541676	-0.541904	-0.00627405	2	-4.95002e-05	3.39993e-06
2	0	0	0	1	371.417	-0.545015	-0.545222	-0.00633567	2	-4.97125e-05	3.45435e-06
2	0	0	1	1	371.451	-0.548353	-0.54856	-0.00639962	2	-4.9927e-05	3.51058e-06
2	0	0	1	1	371.484	-0.551677	-0.551899	-0.00646329	2	-5.01423e-05	3.56708e-06
2	0	0	0	1	371.517	-0.555018	-0.555262	-0.00652973	2	-5.03611e-05	3.62571e-06
2	0	0	0	1	371.55	-0.558336	-0.558572	-0.00659028	2	-5.05807e-05	3.68115e-06
2	0	0	1	1	371.584	-0.561675	-0.561906	-0.00665999	2	-5.08038e-05	3.74228e-06
2	0	0	0	1	371.617	-0.565014	-0.565244	-0.00673008	2	-5.10291e-05	3.80414e-06
2	0	0	0	1	371.65	-0.568335	-0.568578	-0.00680103	2	-5.12555e-05	3.86692e-06
2	0	0	1	1	371.684	-0.571678	-0.571908	-0.00687323	2	-5.14857e-05	3.93086e-06
2	0	0	1	1	371.717	-0.574997	-0.575221	-0.00694359	2	-5.17168e-05	3.9941e-06
2	0	0	0	1	371.75	-0.578335	-0.578564	-0.00701582	2	-5.19517e-05	4.0591e-06
2	0	0	1	1	371.784	-0.581674	-0.581878	-0.0070944	2	-5.21891e-05	4.12808e-06
2	0	0	1	1	371.817	-0.584993	-0.585221	-0.00717823	2	-5.24278e-05	4.20085e-06
2	0	0	0	1	371.85	-0.588338	-0.588561	-0.00725937	2	-5.26707e-05	4.27258e-06
2	0	0	0	1	371.884	-0.591657	-0.5919	-0.00733806	2	-5.29149e-05	4.34339e-06
2	0	0	1	1	371.917	-0.594996	-0.595237	-0.0074243	2	-5.31632e-05	4.41922e-06
2	0	0	0	1	371.949	-0.598165	-0.598376	-0.00750156	2	-5.34013e-05	4.48875e-06
2	0	0	0	1	371.965	-0.599827	-0.60002	-0.00755292	2	-5.35277e-05	4.5319e-06