File: TAP_Report/Data/Res_SHU/100 uM RS 10mM SHU_05_CV_C01_2.mpt
EC-Lab ASCII FILE
Nb header lines : 53

Cyclic Voltammetry

Run on channel : 1 (SN 0696)
User :
Electrode connection : standard
Ewe ctrl range : min = -10.00 V, max = 10.00 V
Ewe,I filtering : 50 kHz
Channel : Grounded
Acquisition started on : 05/17/2017 13:04:41
Saved on :
	File : 100 uM RS 10mM SHU_05_CV_C01.mpr
	Directory : \\userfs\st659\w2k\EC-Lab\Data\ITO Characterisation 17-5-17\
	Host : 144.32.136.43
Device : SP-300 (SN 0182)
Address : USB
EC-Lab for windows v10.44 (software)
Internet server v10.44 (firmware)
Command interpretor v10.44 (firmware)
Electrode material :
Initial state :
Electrolyte :
Comments :
Cable : standard
Electrode surface area : 0.001 cm²
Characteristic mass : 0.001 g
Equivalent Weight : 0.000 g/eq.
Density : 0.000 g/cm3
Ei (V)              0.000
vs.                 Eoc
dE/dt               500.000
dE/dt unit          mV/s
E1 (V)              0.100
vs.                 Ref
Step percent        50
N                   10
E range min (V)     -10.000
E range max (V)     10.000
I Range             Auto
I Range min         Unset
I Range max         Unset
I Range init        Unset
Bandwidth           8
E2 (V)              -0.600
vs.                 Ref
nc cycles           2
Reverse Scan        1
Ef (V)              0.000
vs.                 Eoc

mode	ox/red	error	control changes	counter inc.	time/s	control/V	Ewe/V	<I>/mA	cycle number	(Q-Qo)/C	P/W
2	1	0	0	1	418.945	-0.60016	-0.600371	-0.0120105	2	-7.46319e-06	7.21076e-06
2	1	0	0	1	418.948	-0.598294	-0.598507	-0.0106203	2	-7.50407e-06	6.35631e-06
2	1	0	1	1	418.955	-0.594996	-0.59524	-0.0096498	2	-7.57028e-06	5.74394e-06
2	1	0	0	1	418.962	-0.591697	-0.591923	-0.00913809	2	-7.63175e-06	5.40904e-06
2	1	0	0	1	418.968	-0.588298	-0.588545	-0.00875318	2	-7.69208e-06	5.15165e-06
2	1	0	1	1	418.975	-0.584999	-0.585212	-0.00841812	2	-7.74826e-06	4.92638e-06
2	1	0	0	1	418.982	-0.581701	-0.581919	-0.00812493	2	-7.80236e-06	4.72805e-06
2	1	0	0	1	418.988	-0.578302	-0.578542	-0.00784578	2	-7.85617e-06	4.53911e-06
2	1	0	1	1	418.995	-0.575003	-0.575223	-0.0075951	2	-7.90665e-06	4.36887e-06
2	1	0	0	1	419.002	-0.571705	-0.571943	-0.00735113	2	-7.95551e-06	4.20443e-06
2	1	0	0	1	419.008	-0.568328	-0.56857	-0.00712241	2	-8.00355e-06	4.04959e-06
2	1	0	1	1	419.015	-0.564974	-0.565207	-0.00691515	2	-8.05009e-06	3.90849e-06
2	1	0	0	1	419.022	-0.561675	-0.561905	-0.00672078	2	-8.09464e-06	3.77644e-06
2	1	0	1	1	419.028	-0.558376	-0.558617	-0.00654129	2	-8.13792e-06	3.65407e-06
2	1	0	1	1	419.035	-0.554978	-0.555221	-0.00634526	2	-8.18126e-06	3.52302e-06
2	1	0	0	1	419.042	-0.551679	-0.551903	-0.00617647	2	-8.22214e-06	3.40881e-06
2	1	0	1	1	419.048	-0.54838	-0.548581	-0.00601449	2	-8.2619e-06	3.29944e-06
2	1	0	1	1	419.055	-0.544981	-0.545204	-0.00585316	2	-8.30178e-06	3.19117e-06
2	1	0	0	1	419.062	-0.541683	-0.541892	-0.00569855	2	-8.33946e-06	3.088e-06
2	1	0	1	1	419.068	-0.538384	-0.5386	-0.00555646	2	-8.37614e-06	2.99271e-06
2	1	0	1	1	419.075	-0.534985	-0.53519	-0.00541223	2	-8.41298e-06	2.89657e-06
2	1	0	0	1	419.082	-0.531686	-0.531913	-0.00528465	2	-8.44783e-06	2.81097e-06
2	1	0	1	1	419.088	-0.528388	-0.528623	-0.00514803	2	-8.48179e-06	2.72136e-06
2	1	0	1	1	419.095	-0.524989	-0.525205	-0.00502478	2	-8.51591e-06	2.63904e-06
2	1	0	0	1	419.102	-0.52169	-0.521916	-0.00490088	2	-8.54822e-06	2.55785e-06
2	1	0	1	1	419.108	-0.518391	-0.51861	-0.0047745	2	-8.5797e-06	2.4761e-06
2	1	0	1	1	419.115	-0.514993	-0.515208	-0.00466247	2	-8.61132e-06	2.40214e-06
2	1	0	0	1	419.122	-0.511694	-0.511912	-0.00455136	2	-8.64129e-06	2.3299e-06
2	1	0	1	1	419.128	-0.508395	-0.508611	-0.00443615	2	-8.67049e-06	2.25628e-06
2	1	0	1	1	419.135	-0.504997	-0.505223	-0.00433248	2	-8.69985e-06	2.18887e-06
2	1	0	0	1	419.142	-0.501698	-0.501919	-0.00422604	2	-8.72766e-06	2.12113e-06
2	1	0	1	1	419.148	-0.498399	-0.498616	-0.00412607	2	-8.75477e-06	2.05732e-06
2	1	0	1	1	419.155	-0.495	-0.495205	-0.00402772	2	-8.78202e-06	1.99455e-06
2	1	0	0	1	419.162	-0.491702	-0.491904	-0.00392852	2	-8.80784e-06	1.93246e-06
2	1	0	1	1	419.183	-0.480726	-0.480944	-0.00363246	2	-8.88908e-06	1.74701e-06
2	1	0	0	1	419.206	-0.469677	-0.469877	-0.00332385	2	-8.96899e-06	1.5618e-06
2	1	0	1	1	419.212	-0.466378	-0.466539	-0.00323346	2	-8.9904e-06	1.50854e-06
2	1	0	0	1	419.219	-0.463079	-0.463248	-0.00316145	2	-9.01125e-06	1.46454e-06
2	1	0	0	1	419.226	-0.459681	-0.459857	-0.00307972	2	-9.03221e-06	1.41623e-06
2	1	0	1	1	419.232	-0.456382	-0.456563	-0.00299946	2	-9.05203e-06	1.36944e-06
2	1	0	0	1	419.239	-0.453083	-0.453235	-0.00292287	2	-9.07132e-06	1.32474e-06
2	1	0	0	1	419.246	-0.449684	-0.449852	-0.00284786	2	-9.09071e-06	1.28112e-06
2	1	0	1	1	419.252	-0.446386	-0.446561	-0.00277802	2	-9.10905e-06	1.24055e-06
2	1	0	0	1	419.259	-0.443087	-0.443255	-0.00270378	2	-9.12689e-06	1.19846e-06
2	1	0	0	1	419.266	-0.439688	-0.439874	-0.0026325	2	-9.14479e-06	1.15797e-06
2	1	0	1	1	419.272	-0.436389	-0.436566	-0.00255562	2	-9.16168e-06	1.1157e-06
2	1	0	0	1	419.279	-0.433091	-0.433265	-0.00248709	2	-9.17808e-06	1.07757e-06
2	1	0	0	1	419.286	-0.429692	-0.429856	-0.00242423	2	-9.19453e-06	1.04207e-06
2	1	0	1	1	419.292	-0.426393	-0.426577	-0.00235584	2	-9.21007e-06	1.00495e-06
2	1	0	0	1	419.299	-0.423095	-0.42329	-0.00229285	2	-9.22517e-06	9.70541e-07
2	1	0	0	1	419.306	-0.419696	-0.41988	-0.00222429	2	-9.24027e-06	9.33934e-07
2	1	0	1	1	419.312	-0.416397	-0.416585	-0.00215751	2	-9.25451e-06	8.98786e-07
2	1	0	0	1	419.319	-0.413098	-0.41329	-0.00209487	2	-9.2683e-06	8.65788e-07
2	1	0	0	1	419.326	-0.4097	-0.409887	-0.0020333	2	-9.28208e-06	8.33425e-07
2	1	0	1	1	419.332	-0.406401	-0.40658	-0.00196775	2	-9.29506e-06	8.00047e-07
2	1	0	0	1	419.339	-0.403102	-0.403303	-0.00191544	2	-9.30764e-06	7.72504e-07
2	1	0	0	1	419.346	-0.399703	-0.399901	-0.00185233	2	-9.3202e-06	7.4075e-07
2	1	0	1	1	419.352	-0.396405	-0.39661	-0.0017934	2	-9.332e-06	7.1128e-07
2	1	0	0	1	419.359	-0.393073	-0.393275	-0.00172449	2	-9.34337e-06	6.78198e-07
2	1	0	1	1	419.365	-0.389774	-0.389976	-0.00167413	2	-9.35434e-06	6.5287e-07
2	1	0	1	1	419.372	-0.386375	-0.386579	-0.00162246	2	-9.36531e-06	6.27208e-07
2	1	0	0	1	419.379	-0.383076	-0.383281	-0.00156441	2	-9.37559e-06	5.9961e-07
2	1	0	1	1	419.385	-0.379778	-0.379952	-0.00150577	2	-9.38547e-06	5.7212e-07
2	1	0	1	1	419.392	-0.376379	-0.376552	-0.00145882	2	-9.3953e-06	5.4932e-07
2	1	0	0	1	419.399	-0.37308	-0.373254	-0.00140329	2	-9.40452e-06	5.23784e-07
2	1	0	1	1	419.405	-0.369781	-0.369947	-0.00134754	2	-9.41335e-06	4.98517e-07
2	1	0	1	1	419.412	-0.366383	-0.366559	-0.0013002	2	-9.42211e-06	4.76602e-07
2	1	0	0	1	419.419	-0.363084	-0.363271	-0.00124891	2	-9.43029e-06	4.53694e-07
2	1	0	1	1	419.425	-0.359785	-0.359979	-0.00120203	2	-9.43814e-06	4.32707e-07
2	1	0	1	1	419.432	-0.356387	-0.356575	-0.00114611	2	-9.44588e-06	4.08674e-07
2	1	0	0	1	419.439	-0.353088	-0.353273	-0.00109898	2	-9.45308e-06	3.88239e-07
2	1	0	1	1	419.445	-0.349789	-0.349984	-0.00105236	2	-9.45993e-06	3.6831e-07
2	1	0	1	1	419.452	-0.34639	-0.346596	-0.00100244	2	-9.46667e-06	3.47443e-07
2	1	0	0	1	419.459	-0.343092	-0.343285	-0.000957563	2	-9.47291e-06	3.28717e-07
2	1	0	1	1	419.465	-0.339793	-0.339981	-0.000906731	2	-9.47882e-06	3.08271e-07
2	1	0	1	1	419.472	-0.336394	-0.336566	-0.00086078	2	-9.48458e-06	2.89709e-07
2	1	0	0	1	419.479	-0.333095	-0.333283	-0.000820871	2	-9.4899e-06	2.73582e-07
2	1	0	1	1	419.485	-0.329797	-0.329953	-0.000774979	2	-9.49491e-06	2.55706e-07
2	1	0	1	1	419.492	-0.326398	-0.326551	-0.000723912	2	-9.49976e-06	2.36394e-07
2	1	0	0	1	419.499	-0.323099	-0.323248	-0.000687251	2	-9.5042e-06	2.22152e-07
2	1	0	1	1	419.505	-0.319801	-0.319939	-0.000645905	2	-9.50836e-06	2.0665e-07
2	1	0	1	1	419.512	-0.316402	-0.316568	-0.000602142	2	-9.51236e-06	1.90619e-07
2	1	0	0	1	419.519	-0.313103	-0.313269	-0.000561688	2	-9.51596e-06	1.75959e-07
2	1	0	1	1	419.525	-0.309804	-0.309984	-0.000519822	2	-9.51928e-06	1.61136e-07
2	1	0	1	1	419.532	-0.306439	-0.306607	-0.000466296	2	-9.52235e-06	1.4297e-07
2	1	0	0	1	419.539	-0.303074	-0.303243	-0.000433277	2	-9.52511e-06	1.31388e-07
2	1	0	1	1	419.545	-0.299775	-0.299935	-0.000394724	2	-9.52763e-06	1.18392e-07
2	1	0	0	1	419.552	-0.296476	-0.296631	-0.000350993	2	-9.52984e-06	1.04115e-07
2	1	0	0	1	419.559	-0.293077	-0.293219	-0.000313272	2	-9.53185e-06	9.18575e-08
2	1	0	1	1	419.565	-0.289779	-0.289914	-0.000276093	2	-9.53356e-06	8.00433e-08
2	1	0	0	1	419.572	-0.28648	-0.286624	-0.000235807	2	-9.53501e-06	6.75879e-08
2	1	0	0	1	419.579	-0.283081	-0.283199	-0.000196428	2	-9.53623e-06	5.56281e-08
2	1	0	1	1	419.585	-0.279782	-0.279918	-0.000159385	2	-9.53718e-06	4.46148e-08
2	1	0	0	1	419.592	-0.276484	-0.276633	-0.000125696	2	-9.53789e-06	3.47717e-08
2	1	0	0	1	419.599	-0.273085	-0.273235	-8.36465e-05	2	-9.53835e-06	2.28551e-08
2	1	0	1	1	419.605	-0.269786	-0.269938	-4.99636e-05	2	-9.53856e-06	1.34871e-08
2	1	0	0	1	419.612	-0.266488	-0.266652	-1.22228e-05	2	-9.53852e-06	3.25924e-09
2	1	0	0	1	419.619	-0.263089	-0.263223	3.535e-05	2	-9.53819e-06	9.30492e-09
2	1	0	1	1	419.625	-0.25979	-0.259948	6.14418e-05	2	-9.53765e-06	1.59716e-08
2	1	0	0	1	419.632	-0.256491	-0.256643	0.000101998	2	-9.53686e-06	2.61771e-08
2	1	0	0	1	419.639	-0.253093	-0.253273	0.00013422	2	-9.5358e-06	3.39943e-08
2	1	0	1	1	419.645	-0.249794	-0.249959	0.000178851	2	-9.53454e-06	4.47056e-08
2	1	0	0	1	419.652	-0.246495	-0.246658	0.000211426	2	-9.53301e-06	5.21497e-08
2	1	0	0	1	419.659	-0.243096	-0.243268	0.000253567	2	-9.53118e-06	6.16847e-08
2	1	0	1	1	419.665	-0.239798	-0.239957	0.000286793	2	-9.52917e-06	6.88179e-08
2	1	0	0	1	419.672	-0.236499	-0.236657	0.000324125	2	-9.52692e-06	7.67065e-08
2	1	0	0	1	419.679	-0.2331	-0.233259	0.000356177	2	-9.52435e-06	8.30816e-08
2	1	0	1	1	419.685	-0.229802	-0.229956	0.000401293	2	-9.52163e-06	9.22798e-08
2	1	0	0	1	419.692	-0.226503	-0.226693	0.000428665	2	-9.51864e-06	9.71752e-08
2	1	0	0	1	419.699	-0.223104	-0.22328	0.000474387	2	-9.51531e-06	1.05921e-07
2	1	0	1	1	419.705	-0.219794	-0.219961	0.000518826	2	-9.51181e-06	1.14121e-07
2	1	0	0	1	419.712	-0.216473	-0.216644	0.000550245	2	-9.50806e-06	1.19207e-07
2	1	0	1	1	419.719	-0.213175	-0.213336	0.000586609	2	-9.50407e-06	1.25145e-07
2	1	0	1	1	419.725	-0.209776	-0.209918	0.000629542	2	-9.49969e-06	1.32152e-07
2	1	0	0	1	419.732	-0.206477	-0.206635	0.000662128	2	-9.4952e-06	1.36819e-07
2	1	0	1	1	419.739	-0.203178	-0.203331	0.000700179	2	-9.49046e-06	1.42368e-07
2	1	0	1	1	419.745	-0.19978	-0.199915	0.000740476	2	-9.48532e-06	1.48033e-07
2	1	0	0	1	419.752	-0.196481	-0.196635	0.000775388	2	-9.48009e-06	1.52469e-07
2	1	0	1	1	419.759	-0.193182	-0.193319	0.000810145	2	-9.47462e-06	1.56616e-07
2	1	0	1	1	419.765	-0.189783	-0.189945	0.00084726	2	-9.46873e-06	1.60933e-07
2	1	0	0	1	419.772	-0.186485	-0.186655	0.000891693	2	-9.46277e-06	1.66439e-07
2	1	0	1	1	419.779	-0.183186	-0.183346	0.000928945	2	-9.45652e-06	1.70318e-07
2	1	0	1	1	419.785	-0.179787	-0.179945	0.000967155	2	-9.44983e-06	1.74035e-07
2	1	0	0	1	419.792	-0.176488	-0.176628	0.00100727	2	-9.44309e-06	1.77912e-07
2	1	0	1	1	419.799	-0.17319	-0.173353	0.00104322	2	-9.43608e-06	1.80844e-07
2	1	0	1	1	419.805	-0.169791	-0.169961	0.00107674	2	-9.42862e-06	1.83005e-07
2	1	0	0	1	419.812	-0.166492	-0.166636	0.00112329	2	-9.42113e-06	1.87181e-07
2	1	0	1	1	419.819	-0.163194	-0.163335	0.00115674	2	-9.41336e-06	1.88937e-07
2	1	0	1	1	419.825	-0.159795	-0.159926	0.00119945	2	-9.40509e-06	1.91823e-07
2	1	0	0	1	419.832	-0.156496	-0.156628	0.00124043	2	-9.39681e-06	1.94286e-07
2	1	0	1	1	419.839	-0.153197	-0.153337	0.00127681	2	-9.38825e-06	1.95782e-07
2	1	0	1	1	419.845	-0.149799	-0.149922	0.00131984	2	-9.37918e-06	1.97873e-07
2	1	0	0	1	419.852	-0.1465	-0.146646	0.0013534	2	-9.37012e-06	1.98472e-07
2	1	0	1	1	419.859	-0.143201	-0.14333	0.00139457	2	-9.36081e-06	1.99883e-07
2	1	0	1	1	419.865	-0.139802	-0.139959	0.00143881	2	-9.35092e-06	2.01374e-07
2	1	0	0	1	419.872	-0.136504	-0.136632	0.00147554	2	-9.34107e-06	2.01605e-07
2	1	0	1	1	419.879	-0.133205	-0.133338	0.00151967	2	-9.33094e-06	2.02629e-07
2	1	0	0	1	419.885	-0.129873	-0.13	0.00156483	2	-9.32051e-06	2.03428e-07
2	1	0	0	1	419.892	-0.126474	-0.1266	0.0016011	2	-9.30949e-06	2.027e-07
2	1	0	1	1	419.899	-0.123175	-0.123296	0.0016457	2	-9.29854e-06	2.02909e-07
2	1	0	0	1	419.905	-0.119877	-0.12	0.00167732	2	-9.28734e-06	2.01278e-07
2	1	0	0	1	419.912	-0.116478	-0.116601	0.00172422	2	-9.27552e-06	2.01046e-07
2	1	0	1	1	419.919	-0.113179	-0.113289	0.00176165	2	-9.26379e-06	1.99576e-07
2	1	0	0	1	419.925	-0.109881	-0.110001	0.00179835	2	-9.25179e-06	1.9782e-07
2	1	0	0	1	419.932	-0.106482	-0.106593	0.00184335	2	-9.23917e-06	1.96489e-07
2	1	0	1	1	419.939	-0.103183	-0.103294	0.00187946	2	-9.22666e-06	1.94137e-07
2	1	0	0	1	419.945	-0.0998844	-0.100008	0.00191683	2	-9.21389e-06	1.91698e-07
2	1	0	0	1	419.952	-0.0964857	-0.0966051	0.00196087	2	-9.20045e-06	1.8943e-07
2	1	0	1	1	419.959	-0.0931869	-0.0932969	0.00200385	2	-9.18715e-06	1.86953e-07
2	1	0	0	1	419.965	-0.0898882	-0.0899971	0.00204161	2	-9.17355e-06	1.83739e-07
2	1	0	0	1	419.972	-0.0864895	-0.086621	0.00207927	2	-9.1593e-06	1.80108e-07
2	1	0	1	1	419.979	-0.0831907	-0.083325	0.00211748	2	-9.14522e-06	1.76439e-07
2	1	0	0	1	419.985	-0.079892	-0.0800435	0.00216007	2	-9.13085e-06	1.729e-07
2	1	0	0	1	419.992	-0.0764933	-0.0766514	0.00219902	2	-9.11578e-06	1.68558e-07
2	1	0	1	1	419.999	-0.0731945	-0.0733439	0.00224147	2	-9.10089e-06	1.64398e-07
2	1	0	0	1	420.005	-0.0698958	-0.0700366	0.00228541	2	-9.0857e-06	1.60062e-07
2	1	0	0	1	420.012	-0.0664971	-0.0666404	0.00232103	2	-9.06979e-06	1.54674e-07
2	1	0	1	1	420.019	-0.0631984	-0.0633301	0.00235955	2	-9.05411e-06	1.49431e-07
2	1	0	0	1	420.025	-0.0598996	-0.0600318	0.00240476	2	-9.03815e-06	1.44362e-07
2	1	0	0	1	420.032	-0.0565009	-0.0566654	0.0024414	2	-9.02144e-06	1.38343e-07
2	1	0	1	1	420.039	-0.0532022	-0.0533658	0.00248217	2	-9.00497e-06	1.32463e-07
2	1	0	0	1	420.045	-0.0499034	-0.0500498	0.00252164	2	-8.98821e-06	1.26208e-07
2	1	0	0	1	420.052	-0.0465047	-0.0466706	0.00255624	2	-8.9707e-06	1.19301e-07
2	1	0	1	1	420.059	-0.0431727	-0.0433267	0.00260792	2	-8.95344e-06	1.12993e-07
2	1	0	0	1	420.065	-0.0398739	-0.0400104	0.00263583	2	-8.93591e-06	1.05461e-07
2	1	0	1	1	420.072	-0.0365752	-0.036695	0.00266967	2	-8.91815e-06	9.79635e-08
2	1	0	1	1	420.079	-0.0331765	-0.0333107	0.00270546	2	-8.89961e-06	9.01209e-08
2	1	0	0	1	420.085	-0.0298777	-0.0300167	0.00274344	2	-8.8814e-06	8.23491e-08
2	1	0	1	1	420.092	-0.026579	-0.0266881	0.00277388	2	-8.86294e-06	7.40295e-08
2	1	0	1	1	420.099	-0.0231803	-0.0233071	0.00280805	2	-8.84373e-06	6.54475e-08
2	1	0	0	1	420.105	-0.0198815	-0.0200078	0.00283654	2	-8.82487e-06	5.67529e-08
2	1	0	1	1	420.112	-0.0165828	-0.0167221	0.00286743	2	-8.80581e-06	4.79495e-08
2	1	0	1	1	420.119	-0.0131841	-0.0133224	0.00289474	2	-8.78597e-06	3.85649e-08
2	1	0	0	1	420.125	-0.00988535	-0.0100259	0.00292826	2	-8.76651e-06	2.93584e-08
2	1	0	1	1	420.132	-0.0065866	-0.0067214	0.00295859	2	-8.74684e-06	1.98859e-08
2	1	0	1	1	420.139	-0.0031879	-0.00332244	0.0029792	2	-8.7264e-06	9.89822e-09
2	1	0	0	1	420.145	0.000123853	-5.2439e-05	0.00300716	2	-8.70642e-06	1.57693e-10
2	1	0	1	1	420.152	0.00340958	0.0033029	0.00303934	2	-8.68622e-06	1.00386e-08
2	1	0	1	1	420.159	0.00680829	0.00670078	0.00305478	2	-8.66526e-06	2.04694e-08
2	1	0	0	1	420.165	0.010107	0.00998089	0.00307417	2	-8.6448e-06	3.06829e-08
2	1	0	1	1	420.172	0.0134058	0.0133088	0.00309501	2	-8.6242e-06	4.11909e-08
2	1	0	1	1	420.179	0.0168045	0.016701	0.00311282	2	-8.60284e-06	5.19873e-08
2	1	0	0	1	420.185	0.0201032	0.0200099	0.00313303	2	-8.58201e-06	6.26918e-08
2	1	0	1	1	420.192	0.023402	0.0232936	0.00314267	2	-8.56106e-06	7.3204e-08
2	1	0	1	1	420.199	0.0268007	0.0266823	0.00316387	2	-8.53937e-06	8.44196e-08
2	1	0	0	1	420.205	0.0300994	0.0299757	0.00317275	2	-8.51823e-06	9.51055e-08
2	1	0	1	1	420.212	0.0333981	0.0332884	0.00318836	2	-8.49699e-06	1.06135e-07
2	1	0	1	1	420.219	0.0367968	0.0367012	0.00320327	2	-8.47501e-06	1.17564e-07
2	1	0	0	1	420.225	0.0400956	0.039988	0.00320729	2	-8.45362e-06	1.28253e-07
2	1	0	1	1	420.232	0.0434165	0.0433057	0.00323387	2	-8.43213e-06	1.40045e-07
2	1	0	0	1	420.238	0.0467264	0.0466417	0.00324206	2	-8.41053e-06	1.51215e-07
2	1	0	0	1	420.245	0.0501251	0.0500622	0.00323939	2	-8.38826e-06	1.62171e-07
2	1	0	1	1	420.252	0.0534238	0.0533421	0.00324332	2	-8.36664e-06	1.73006e-07
2	1	0	0	1	420.258	0.0567226	0.056662	0.00325556	2	-8.34493e-06	1.84467e-07
2	1	0	0	1	420.265	0.0601213	0.0600554	0.0032559	2	-8.32255e-06	1.95534e-07
2	1	0	1	1	420.272	0.06342	0.0633427	0.00326668	2	-8.3008e-06	2.0692e-07
2	1	0	0	1	420.278	0.0667187	0.0666389	0.00326527	2	-8.27901e-06	2.17594e-07
2	1	0	0	1	420.285	0.0701175	0.0700317	0.00327371	2	-8.25654e-06	2.29264e-07
2	1	0	1	1	420.292	0.0734162	0.0733315	0.00327329	2	-8.23472e-06	2.40035e-07
2	1	0	0	1	420.298	0.0767149	0.0766278	0.0032797	2	-8.21285e-06	2.51317e-07
2	1	0	0	1	420.305	0.0801136	0.0800375	0.00328162	2	-8.1903e-06	2.62653e-07
2	1	0	1	1	420.312	0.0834124	0.0833202	0.00328154	2	-8.16842e-06	2.73418e-07
2	1	0	0	1	420.318	0.0867111	0.086604	0.00328109	2	-8.14653e-06	2.84156e-07
2	1	0	0	1	420.325	0.0901098	0.09002	0.00328732	2	-8.12395e-06	2.95924e-07
2	1	0	1	1	420.332	0.0934086	0.0933163	0.00328761	2	-8.10203e-06	3.06788e-07
2	1	0	0	1	420.338	0.0967073	0.0966022	0.00328827	2	-8.08009e-06	3.17654e-07
2	1	0	0	1	420.343	0.0991064	0.0990189	0.00329888	2	-8.06412e-06	3.26651e-07
2	0	0	1	1	420.345	0.0999061	0.0997879	0.00320706	2	-8.05753e-06	3.20026e-07
2	0	0	1	1	420.349	0.0980401	0.0978713	0.00214772	2	-8.04897e-06	2.102e-07
2	0	0	0	1	420.356	0.0947414	0.0945537	0.00168808	2	-8.03668e-06	1.59614e-07
2	0	0	1	1	420.362	0.0914426	0.0912555	0.00149485	2	-8.02646e-06	1.36413e-07
2	0	0	1	1	420.369	0.0880439	0.0878386	0.00134048	2	-8.01708e-06	1.17746e-07
2	0	0	0	1	420.376	0.0847452	0.0845586	0.00121699	2	-8.00888e-06	1.02907e-07
2	0	0	1	1	420.382	0.0814465	0.0812637	0.00110604	2	-8.00148e-06	8.98807e-08
2	0	0	1	1	420.389	0.0780478	0.07787	0.000997382	2	-7.99459e-06	7.76661e-08
2	0	0	0	1	420.396	0.074749	0.0745677	0.00089951	2	-7.98857e-06	6.70743e-08
2	0	0	1	1	420.402	0.0714503	0.0712508	0.000815721	2	-7.98317e-06	5.81207e-08
2	0	0	1	1	420.409	0.0680516	0.0678743	0.000727813	2	-7.97817e-06	4.93998e-08
2	0	0	0	1	420.416	0.0647528	0.0645883	0.000656687	2	-7.97384e-06	4.24143e-08
2	0	0	1	1	420.422	0.0614541	0.0612991	0.000575937	2	-7.97003e-06	3.53044e-08
2	0	0	1	1	420.429	0.0580554	0.0578997	0.000504551	2	-7.96661e-06	2.92133e-08
2	0	0	0	1	420.436	0.0547566	0.0545938	0.000432468	2	-7.96376e-06	2.36101e-08
2	0	0	1	1	420.442	0.0514579	0.0512915	0.000367832	2	-7.96138e-06	1.88666e-08
2	0	0	1	1	420.449	0.0480592	0.0478818	0.000303078	2	-7.95936e-06	1.4512e-08
2	0	0	0	1	420.456	0.0447605	0.0445878	0.00023869	2	-7.9578e-06	1.06427e-08
2	0	0	1	1	420.462	0.0414284	0.0412338	0.000169604	2	-7.95671e-06	6.99343e-09
2	0	0	0	1	420.469	0.0381297	0.0379368	0.000120772	2	-7.956e-06	4.5817e-09
2	0	0	0	1	420.476	0.034731	0.0345416	5.88804e-05	2	-7.95563e-06	2.03382e-09
2	0	0	1	1	420.482	0.0314322	0.0312208	6.90343e-06	2	-7.95566e-06	2.1553e-10
2	0	0	0	1	420.489	0.0281335	0.0279196	-4.77678e-05	2	-7.95604e-06	1.33366e-09
2	0	0	0	1	420.496	0.0247348	0.0245284	-0.000103112	2	-7.95681e-06	2.52917e-09
2	0	0	1	1	420.502	0.021436	0.0212342	-0.000152388	2	-7.95789e-06	3.23583e-09
2	0	0	0	1	420.509	0.0181373	0.0179455	-0.000204827	2	-7.95932e-06	3.67573e-09
2	0	0	0	1	420.516	0.0147386	0.0145669	-0.000257277	2	-7.96114e-06	3.74774e-09
2	0	0	1	1	420.522	0.0114399	0.0112304	-0.000311008	2	-7.96325e-06	3.49274e-09
2	0	0	0	1	420.529	0.00814111	0.00793258	-0.000356943	2	-7.9657e-06	2.83148e-09
2	0	0	0	1	420.536	0.00474241	0.0045314	-0.000405439	2	-7.96853e-06	1.8372e-09
2	0	0	1	1	420.542	0.00144367	0.00119844	-0.000459866	2	-7.97163e-06	5.51124e-10
2	0	0	0	1	420.549	-0.00185507	-0.0021038	-0.000498427	2	-7.97505e-06	1.04859e-09
2	0	0	0	1	420.556	-0.00525378	-0.00550657	-0.00054417	2	-7.97885e-06	2.99651e-09
2	0	0	1	1	420.562	-0.00855252	-0.00880633	-0.00059454	2	-7.98283e-06	5.23571e-09
2	0	0	0	1	420.569	-0.0118513	-0.0120974	-0.000635089	2	-7.98714e-06	7.68291e-09
2	0	0	0	1	420.576	-0.01525	-0.0154982	-0.000678829	2	-7.99187e-06	1.05206e-08
2	0	0	1	1	420.582	-0.0185487	-0.0187875	-0.000723679	2	-7.99673e-06	1.35961e-08
2	0	0	0	1	420.589	-0.0218475	-0.0220779	-0.000765747	2	-8.0019e-06	1.69061e-08
2	0	0	0	1	420.596	-0.0252462	-0.0254695	-0.00080846	2	-8.0075e-06	2.0591e-08
2	0	0	1	1	420.602	-0.0285449	-0.0287709	-0.000850748	2	-8.01322e-06	2.44768e-08
2	0	0	0	1	420.609	-0.0318436	-0.0320832	-0.000895035	2	-8.01923e-06	2.87156e-08
2	0	0	0	1	420.616	-0.0352423	-0.0354808	-0.000940418	2	-8.02572e-06	3.33667e-08
2	0	0	1	1	420.622	-0.0385411	-0.0387562	-0.000979117	2	-8.03228e-06	3.79468e-08
2	0	0	0	1	420.629	-0.0418398	-0.0420822	-0.00102708	2	-8.03915e-06	4.32217e-08
2	0	0	0	1	420.635	-0.0452167	-0.0454767	-0.00107169	2	-8.04642e-06	4.8737e-08
2	0	0	1	1	420.642	-0.0485706	-0.0488088	-0.0011032	2	-8.05394e-06	5.38457e-08
2	0	0	0	1	420.649	-0.0518693	-0.0521332	-0.00114747	2	-8.0616e-06	5.98213e-08
2	0	0	1	1	420.655	-0.0551681	-0.0554289	-0.00118282	2	-8.06954e-06	6.55623e-08
2	0	0	1	1	420.662	-0.0585668	-0.0588195	-0.00122373	2	-8.07798e-06	7.19792e-08
2	0	0	0	1	420.669	-0.0618655	-0.0621184	-0.00126055	2	-8.08641e-06	7.83036e-08
2	0	0	1	1	420.675	-0.0651643	-0.0654032	-0.0013018	2	-8.09511e-06	8.51416e-08
2	0	0	1	1	420.682	-0.068563	-0.0688112	-0.00134008	2	-8.10435e-06	9.22126e-08
2	0	0	0	1	420.689	-0.0718617	-0.0720972	-0.00138419	2	-8.11357e-06	9.97958e-08
2	0	0	1	1	420.695	-0.0751605	-0.0754029	-0.00141921	2	-8.12306e-06	1.07013e-07
2	0	0	1	1	420.702	-0.0785592	-0.078807	-0.00145713	2	-8.1331e-06	1.14832e-07
2	0	0	0	1	420.709	-0.0818579	-0.0821104	-0.00150043	2	-8.14308e-06	1.23201e-07
2	0	0	1	1	420.715	-0.0851566	-0.0854006	-0.00153033	2	-8.15333e-06	1.30691e-07
2	0	0	1	1	420.722	-0.0885553	-0.0887895	-0.00157236	2	-8.16413e-06	1.39609e-07
2	0	0	0	1	420.729	-0.0918541	-0.0920641	-0.00160704	2	-8.17486e-06	1.47951e-07
2	0	0	1	1	420.735	-0.0951528	-0.0953734	-0.00164972	2	-8.18587e-06	1.5734e-07
2	0	0	1	1	420.742	-0.0985515	-0.0987832	-0.0016858	2	-8.19746e-06	1.66528e-07
2	0	0	0	1	420.749	-0.10185	-0.102061	-0.00172114	2	-8.20894e-06	1.75661e-07
2	0	0	1	1	420.755	-0.105149	-0.105376	-0.00175898	2	-8.22068e-06	1.85354e-07
2	0	0	1	1	420.762	-0.108548	-0.108772	-0.00179736	2	-8.23302e-06	1.95501e-07
2	0	0	0	1	420.769	-0.111846	-0.112068	-0.00183344	2	-8.24524e-06	2.05469e-07
2	0	0	1	1	420.775	-0.115145	-0.115375	-0.00187622	2	-8.25772e-06	2.16468e-07
2	0	0	1	1	420.782	-0.118544	-0.118766	-0.00190648	2	-8.27083e-06	2.26424e-07
2	0	0	0	1	420.789	-0.121843	-0.122051	-0.00194556	2	-8.28378e-06	2.37458e-07
2	0	0	1	1	420.795	-0.125141	-0.125355	-0.00198198	2	-8.29699e-06	2.48451e-07
2	0	0	1	1	420.802	-0.12854	-0.128776	-0.00202509	2	-8.31088e-06	2.60784e-07
2	0	0	0	1	420.809	-0.131861	-0.132089	-0.00206276	2	-8.32459e-06	2.72469e-07
2	0	0	1	1	420.815	-0.135171	-0.135394	-0.00209435	2	-8.33854e-06	2.83561e-07
2	0	0	0	1	420.822	-0.13847	-0.138722	-0.00213254	2	-8.35273e-06	2.95829e-07
2	0	0	0	1	420.829	-0.141868	-0.142121	-0.0021695	2	-8.3676e-06	3.08332e-07
2	0	0	1	1	420.835	-0.145167	-0.145402	-0.00220167	2	-8.38225e-06	3.20128e-07
2	0	0	0	1	420.842	-0.148466	-0.148717	-0.00223859	2	-8.39715e-06	3.32916e-07
2	0	0	0	1	420.849	-0.151865	-0.152093	-0.00227751	2	-8.41275e-06	3.46392e-07
2	0	0	1	1	420.855	-0.155163	-0.155377	-0.00231269	2	-8.42813e-06	3.59339e-07
2	0	0	0	1	420.862	-0.158462	-0.158694	-0.00235735	2	-8.44379e-06	3.74097e-07
2	0	0	0	1	420.869	-0.161861	-0.162104	-0.00239572	2	-8.4602e-06	3.88356e-07
2	0	0	1	1	420.875	-0.165159	-0.16542	-0.00243108	2	-8.47637e-06	4.02149e-07
2	0	0	0	1	420.882	-0.168458	-0.168727	-0.00247252	2	-8.49281e-06	4.17179e-07
2	0	0	0	1	420.889	-0.171857	-0.17213	-0.00251335	2	-8.51001e-06	4.32625e-07
2	0	0	1	1	420.895	-0.175156	-0.1754	-0.00255046	2	-8.52694e-06	4.47349e-07
2	0	0	0	1	420.902	-0.178454	-0.178711	-0.00259509	2	-8.54417e-06	4.63771e-07
2	0	0	0	1	420.909	-0.181853	-0.18212	-0.00263738	2	-8.56222e-06	4.8032e-07
2	0	0	1	1	420.915	-0.185152	-0.185422	-0.0026781	2	-8.57999e-06	4.96578e-07
2	0	0	0	1	420.922	-0.188451	-0.188711	-0.00272138	2	-8.59805e-06	5.13555e-07
2	0	0	0	1	420.929	-0.191849	-0.192099	-0.0027634	2	-8.61696e-06	5.30848e-07
2	0	0	1	1	420.935	-0.195148	-0.19537	-0.00280352	2	-8.63556e-06	5.47723e-07
2	0	0	0	1	420.942	-0.198447	-0.198684	-0.00284801	2	-8.65445e-06	5.65854e-07
2	0	0	0	1	420.949	-0.201846	-0.202092	-0.00289338	2	-8.67424e-06	5.84728e-07
2	0	0	1	1	420.955	-0.205144	-0.205392	-0.00294192	2	-8.69373e-06	6.04248e-07
2	0	0	0	1	420.962	-0.208443	-0.208677	-0.00298092	2	-8.71351e-06	6.22049e-07
2	0	0	0	1	420.969	-0.211842	-0.212093	-0.00303472	2	-8.73422e-06	6.43643e-07
2	0	0	1	1	420.975	-0.21514	-0.215415	-0.00307071	2	-8.75459e-06	6.61479e-07
2	0	0	0	1	420.982	-0.21845	-0.218712	-0.00311296	2	-8.77525e-06	6.80841e-07
2	0	0	1	1	420.989	-0.221771	-0.222036	-0.00316241	2	-8.79621e-06	7.02169e-07
2	0	0	1	1	420.995	-0.22517	-0.225449	-0.00320153	2	-8.81808e-06	7.21782e-07
2	0	0	0	1	421.002	-0.228469	-0.228734	-0.00323744	2	-8.83956e-06	7.40512e-07
2	0	0	1	1	421.009	-0.231767	-0.232026	-0.00327995	2	-8.86133e-06	7.61034e-07
2	0	0	1	1	421.015	-0.235166	-0.235439	-0.00332137	2	-8.88402e-06	7.81978e-07
2	0	0	0	1	421.022	-0.238465	-0.238725	-0.0033637	2	-8.9063e-06	8.02998e-07
2	0	0	1	1	421.029	-0.241764	-0.242016	-0.00340392	2	-8.92887e-06	8.23804e-07
2	0	0	1	1	421.035	-0.245162	-0.245411	-0.00344906	2	-8.95242e-06	8.46436e-07
2	0	0	0	1	421.042	-0.248461	-0.24874	-0.00348841	2	-8.97554e-06	8.67706e-07
2	0	0	1	1	421.049	-0.25176	-0.252014	-0.00352746	2	-8.99894e-06	8.8897e-07
2	0	0	1	1	421.055	-0.255159	-0.255406	-0.0035673	2	-9.02331e-06	9.11109e-07
2	0	0	0	1	421.062	-0.258457	-0.258713	-0.00360461	2	-9.0472e-06	9.3256e-07
2	0	0	1	1	421.069	-0.261756	-0.26202	-0.00364377	2	-9.07137e-06	9.54741e-07
2	0	0	1	1	421.075	-0.265155	-0.265403	-0.00368858	2	-9.09654e-06	9.78962e-07
2	0	0	0	1	421.082	-0.268453	-0.268712	-0.00372403	2	-9.12123e-06	1.00069e-06
2	0	0	1	1	421.089	-0.271752	-0.271993	-0.00375881	2	-9.14618e-06	1.02237e-06
2	0	0	1	1	421.095	-0.275151	-0.27539	-0.00379752	2	-9.17212e-06	1.0458e-06
2	0	0	0	1	421.102	-0.27845	-0.278683	-0.00384028	2	-9.19756e-06	1.07022e-06
2	0	0	1	1	421.109	-0.281748	-0.281982	-0.0038813	2	-9.22329e-06	1.09446e-06
2	0	0	1	1	421.115	-0.285147	-0.285369	-0.00392139	2	-9.25007e-06	1.11904e-06
2	0	0	0	1	421.122	-0.288446	-0.288683	-0.00396427	2	-9.27633e-06	1.14442e-06
2	0	0	1	1	421.129	-0.291745	-0.291989	-0.00400225	2	-9.30286e-06	1.16861e-06
2	0	0	1	1	421.135	-0.295143	-0.295376	-0.00404055	2	-9.33045e-06	1.19348e-06
2	0	0	0	1	421.142	-0.298442	-0.298711	-0.00409185	2	-9.35752e-06	1.22228e-06
2	0	0	1	1	421.149	-0.301741	-0.302015	-0.00412286	2	-9.38487e-06	1.24517e-06
2	0	0	1	1	421.155	-0.305095	-0.305354	-0.00416252	2	-9.41287e-06	1.27104e-06
2	0	0	0	1	421.162	-0.308472	-0.30873	-0.00421555	2	-9.44121e-06	1.30147e-06
2	0	0	1	1	421.169	-0.31177	-0.312054	-0.00425496	2	-9.4694e-06	1.32778e-06
2	0	0	0	1	421.175	-0.315069	-0.315347	-0.00429437	2	-9.49785e-06	1.35422e-06
2	0	0	0	1	421.182	-0.318468	-0.318728	-0.00433411	2	-9.52743e-06	1.3814e-06
2	0	0	1	1	421.189	-0.321766	-0.322024	-0.00438398	2	-9.55643e-06	1.41175e-06
2	0	0	0	1	421.195	-0.325065	-0.325318	-0.00442172	2	-9.58574e-06	1.43846e-06
2	0	0	0	1	421.202	-0.328464	-0.328708	-0.00447684	2	-9.61625e-06	1.47157e-06
2	0	0	1	1	421.209	-0.331763	-0.332038	-0.00451869	2	-9.64618e-06	1.50038e-06
2	0	0	0	1	421.215	-0.335061	-0.335321	-0.00456287	2	-9.6764e-06	1.53003e-06
2	0	0	0	1	421.222	-0.33846	-0.338739	-0.00461837	2	-9.70788e-06	1.56442e-06
2	0	0	1	1	421.229	-0.341759	-0.342068	-0.00466438	2	-9.73874e-06	1.59554e-06
2	0	0	0	1	421.235	-0.345058	-0.345363	-0.00471192	2	-9.76993e-06	1.62732e-06
2	0	0	0	1	421.242	-0.348456	-0.348731	-0.00476277	2	-9.80238e-06	1.66092e-06
2	0	0	1	1	421.249	-0.351755	-0.352064	-0.00481549	2	-9.83421e-06	1.69536e-06
2	0	0	0	1	421.255	-0.355054	-0.355348	-0.00486554	2	-9.86641e-06	1.72896e-06
2	0	0	0	1	421.262	-0.358452	-0.358753	-0.0049155	2	-9.89991e-06	1.76345e-06
2	0	0	1	1	421.269	-0.361751	-0.362035	-0.00496501	2	-9.93275e-06	1.79751e-06
2	0	0	0	1	421.275	-0.36505	-0.365328	-0.00502413	2	-9.96596e-06	1.83546e-06
2	0	0	0	1	421.282	-0.368449	-0.368732	-0.0050739	2	-1.00005e-05	1.87091e-06
2	0	0	1	1	421.289	-0.371747	-0.372037	-0.00513882	2	-1.00345e-05	1.91183e-06
2	0	0	0	1	421.295	-0.375046	-0.375313	-0.00519066	2	-1.00688e-05	1.94812e-06
2	0	0	0	1	421.302	-0.378445	-0.378729	-0.00524529	2	-1.01045e-05	1.98654e-06
2	0	0	1	1	421.309	-0.381744	-0.382031	-0.00531251	2	-1.01396e-05	2.02954e-06
2	0	0	0	1	421.315	-0.385042	-0.38536	-0.00536229	2	-1.01751e-05	2.06642e-06
2	0	0	0	1	421.322	-0.388441	-0.388748	-0.00542798	2	-1.0212e-05	2.11012e-06
2	0	0	1	1	421.329	-0.39174	-0.392035	-0.00548905	2	-1.02483e-05	2.1519e-06
2	0	0	0	1	421.335	-0.395061	-0.395376	-0.00555552	2	-1.02849e-05	2.19652e-06
2	0	0	1	1	421.342	-0.398371	-0.398685	-0.0056138	2	-1.0322e-05	2.23814e-06
2	0	0	1	1	421.349	-0.401769	-0.402069	-0.00567533	2	-1.03607e-05	2.28188e-06
2	0	0	0	1	421.355	-0.405068	-0.405358	-0.00574232	2	-1.03986e-05	2.3277e-06
2	0	0	1	1	421.362	-0.408367	-0.408652	-0.00580237	2	-1.04369e-05	2.37115e-06
2	0	0	1	1	421.369	-0.411765	-0.412051	-0.00586554	2	-1.04769e-05	2.4169e-06
2	0	0	0	1	421.375	-0.415064	-0.415363	-0.0059371	2	-1.0516e-05	2.46605e-06
2	0	0	1	1	421.382	-0.418363	-0.418668	-0.00600685	2	-1.05557e-05	2.51487e-06
2	0	0	1	1	421.389	-0.421762	-0.422065	-0.00607417	2	-1.0597e-05	2.56369e-06
2	0	0	0	1	421.395	-0.42506	-0.425381	-0.00613991	2	-1.06376e-05	2.6118e-06
2	0	0	1	1	421.402	-0.428359	-0.428641	-0.0062065	2	-1.06786e-05	2.66036e-06
2	0	0	1	1	421.409	-0.431758	-0.432042	-0.00627305	2	-1.07213e-05	2.71022e-06
2	0	0	0	1	421.415	-0.435057	-0.435357	-0.00635524	2	-1.07632e-05	2.76679e-06
2	0	0	1	1	421.422	-0.438355	-0.438645	-0.00642232	2	-1.08056e-05	2.81712e-06
2	0	0	1	1	421.429	-0.441754	-0.442045	-0.00649602	2	-1.08498e-05	2.87153e-06
2	0	0	0	1	421.435	-0.445053	-0.445341	-0.00657144	2	-1.08931e-05	2.92653e-06
2	0	0	1	1	421.442	-0.448352	-0.448624	-0.00664241	2	-1.0937e-05	2.97994e-06
2	0	0	1	1	421.449	-0.45175	-0.452032	-0.00672236	2	-1.09827e-05	3.03872e-06
2	0	0	0	1	421.455	-0.455049	-0.455308	-0.00680121	2	-1.10275e-05	3.09664e-06
2	0	0	1	1	421.462	-0.458348	-0.458628	-0.00687516	2	-1.10729e-05	3.15314e-06
2	0	0	1	1	421.469	-0.461746	-0.462039	-0.00695282	2	-1.11201e-05	3.21247e-06
2	0	0	0	1	421.475	-0.465045	-0.465328	-0.00703019	2	-1.11665e-05	3.27134e-06
2	0	0	1	1	421.482	-0.468344	-0.468646	-0.00711794	2	-1.12134e-05	3.33579e-06
2	0	0	1	1	421.489	-0.471743	-0.472036	-0.00718135	2	-1.12623e-05	3.38986e-06
2	0	0	0	1	421.495	-0.475041	-0.475344	-0.00726668	2	-1.13102e-05	3.45417e-06
2	0	0	1	1	421.502	-0.47834	-0.478648	-0.00735612	2	-1.13587e-05	3.52099e-06
2	0	0	1	1	421.508	-0.481705	-0.482016	-0.00743411	2	-1.14085e-05	3.58336e-06
2	0	0	0	1	421.515	-0.485071	-0.485371	-0.00751629	2	-1.14589e-05	3.64819e-06
2	0	0	1	1	421.522	-0.48837	-0.48866	-0.00759771	2	-1.1509e-05	3.7127e-06
2	0	0	0	1	421.528	-0.491668	-0.491953	-0.00767389	2	-1.15596e-05	3.77519e-06
2	0	0	0	1	421.535	-0.495067	-0.495349	-0.00775964	2	-1.16124e-05	3.84373e-06
2	0	0	1	1	421.542	-0.498366	-0.498667	-0.0078503	2	-1.16641e-05	3.91468e-06
2	0	0	0	1	421.548	-0.501665	-0.501967	-0.00793336	2	-1.17165e-05	3.98229e-06
2	0	0	0	1	421.555	-0.505063	-0.505368	-0.00802136	2	-1.1771e-05	4.05374e-06
2	0	0	1	1	421.562	-0.508362	-0.508649	-0.00810917	2	-1.18244e-05	4.12472e-06
2	0	0	0	1	421.568	-0.511661	-0.511959	-0.00818832	2	-1.18785e-05	4.19209e-06
2	0	0	0	1	421.575	-0.515059	-0.515356	-0.0082791	2	-1.19347e-05	4.26668e-06
2	0	0	1	1	421.582	-0.518358	-0.518644	-0.00837239	2	-1.19899e-05	4.34229e-06
2	0	0	0	1	421.588	-0.521657	-0.521964	-0.00846231	2	-1.20457e-05	4.41702e-06
2	0	0	0	1	421.595	-0.525056	-0.525351	-0.00855923	2	-1.21039e-05	4.4966e-06
2	0	0	1	1	421.602	-0.528354	-0.528662	-0.0086411	2	-1.21609e-05	4.56822e-06
2	0	0	0	1	421.608	-0.531653	-0.531946	-0.00873742	2	-1.22185e-05	4.64784e-06
2	0	0	0	1	421.615	-0.535052	-0.535348	-0.00882617	2	-1.22784e-05	4.72507e-06
2	0	0	1	1	421.622	-0.538351	-0.53863	-0.00892523	2	-1.23372e-05	4.8074e-06
2	0	0	0	1	421.628	-0.541649	-0.541939	-0.00902398	2	-1.23967e-05	4.89045e-06
2	0	0	0	1	421.635	-0.545048	-0.545339	-0.00912552	2	-1.24587e-05	4.9765e-06
2	0	0	1	1	421.642	-0.548347	-0.548651	-0.00922099	2	-1.25195e-05	5.05911e-06
2	0	0	0	1	421.648	-0.551646	-0.551935	-0.00932997	2	-1.2581e-05	5.14953e-06
2	0	0	0	1	421.655	-0.555044	-0.555358	-0.00943026	2	-1.2645e-05	5.23718e-06
2	0	0	1	1	421.662	-0.558343	-0.558655	-0.00953339	2	-1.27079e-05	5.32588e-06
2	0	0	0	1	421.668	-0.561642	-0.561936	-0.00964906	2	-1.27714e-05	5.42215e-06
2	0	0	0	1	421.675	-0.56504	-0.565357	-0.00974978	2	-1.28376e-05	5.5121e-06
2	0	0	1	1	421.682	-0.56835	-0.568672	-0.00987107	2	-1.29026e-05	5.6134e-06
2	0	0	0	1	421.688	-0.571671	-0.57199	-0.00997694	2	-1.29683e-05	5.70671e-06
2	0	0	1	1	421.695	-0.57497	-0.575267	-0.010097	2	-1.30348e-05	5.80845e-06
2	0	0	1	1	421.717	-0.586001	-0.586259	-0.0104684	2	-1.32622e-05	6.1372e-06
2	0	0	1	1	421.739	-0.596962	-0.597199	-0.0108455	2	-1.34904e-05	6.47694e-06
2	0	0	1	1	421.743	-0.599161	-0.599415	-0.0109223	2	-1.35385e-05	6.54698e-06
2	0	0	1	1	421.745	-0.599827	-0.600039	-0.0109723	2	-1.35539e-05	6.58383e-06