File: TAP_Report/Data/Res_growth/blank_2_2.mpt
EC-Lab ASCII FILE
Nb header lines : 54

Cyclic Voltammetry

Run on channel : 1 (SN 0696)
User :
Electrode connection : standard
Ewe ctrl range : min = -2.50 V, max = 2.50 V
Ewe,I filtering : 50 kHz
Channel : Grounded
Acquisition started on : 01/18/2017 14:21:07
Saved on :
	File : blank_2.mpr
	Directory : H:\EC-Lab\Data\Resazurin Bulk 18-1-17\
	Host : 144.32.136.43
Device : SP-300 (SN 0182)
Address : USB
EC-Lab for windows v10.44 (software)
Internet server v10.44 (firmware)
Command interpretor v10.44 (firmware)
Electrode material :
Initial state :
Electrolyte :
Comments :
Cable : standard
Reference electrode : SCE Saturated Calomel Electrode (0.241 V)
Electrode surface area : 0.001 cm²
Characteristic mass : 0.001 g
Equivalent Weight : 0.000 g/eq.
Density : 0.000 g/cm3
Ei (V)              0.000
vs.                 Eoc
dE/dt               100.000
dE/dt unit          mV/s
E1 (V)              0.000
vs.                 Ref
Step percent        50
N                   10
E range min (V)     -2.500
E range max (V)     2.500
I Range             Auto
I Range min         Unset
I Range max         Unset
I Range init        Unset
Bandwidth           8
E2 (V)              -0.900
vs.                 Ref
nc cycles           2
Reverse Scan        1
Ef (V)              0.000
vs.                 Eoc

mode	ox/red	error	control changes	counter inc.	time/s	control/V	Ewe/V	<I>/mA	cycle number	(Q-Qo)/C	P/W
2	1	0	1	1	17.9956	-0.0136295	-0.0140178	0.0139395	2	-0.00104873	1.95402e-07
2	1	0	0	1	18.0211	-0.0110804	-0.0114509	0.0139687	2	-0.00104836	1.59954e-07
2	1	0	0	1	18.0511	-0.00808151	-0.00845746	0.0138902	2	-0.00104794	1.17475e-07
2	1	0	0	1	18.0811	-0.00508258	-0.00547296	0.0137758	2	-0.00104752	7.53946e-08
2	1	0	0	1	18.1111	-0.00208365	-0.00246429	0.0137465	2	-0.0010471	3.38754e-08
2	0	0	0	1	18.1322	-3.43797e-05	-0.000427285	0.0131555	2	-0.0010468	5.62116e-09
2	0	0	1	1	18.1577	-0.00258347	-0.00302961	0.00994775	2	-0.00104653	3.01378e-08
2	0	0	1	1	18.1877	-0.0055824	-0.00603043	0.0087264	2	-0.00104626	5.26239e-08
2	0	0	1	1	18.2177	-0.00858133	-0.00902532	0.00781952	2	-0.00104602	7.05737e-08
2	0	0	1	1	18.2477	-0.0115803	-0.0120257	0.00710417	2	-0.0010458	8.54327e-08
2	0	0	0	1	18.2775	-0.0145792	-0.0150238	0.0064923	2	-0.00104561	9.7539e-08
2	0	0	0	1	18.3075	-0.0175781	-0.0180407	0.0059173	2	-0.00104543	1.06752e-07
2	0	0	0	1	18.3375	-0.020577	-0.0210182	0.00544191	2	-0.00104527	1.14379e-07
2	0	0	0	1	18.3675	-0.023576	-0.0240352	0.00497687	2	-0.00104512	1.1962e-07
2	0	0	0	1	18.4275	-0.0295738	-0.0300084	0.00391247	2	-0.00104484	1.17407e-07
2	0	0	0	1	18.4575	-0.0325727	-0.0330054	0.00356865	2	-0.00104473	1.17785e-07
2	0	0	0	1	18.4875	-0.0355717	-0.0360149	0.00323831	2	-0.00104463	1.16627e-07
2	0	0	0	1	18.5175	-0.0385706	-0.039028	0.00291268	2	-0.00104454	1.13676e-07
2	0	0	0	1	18.5475	-0.0415695	-0.0420197	0.00261378	2	-0.00104445	1.0983e-07
2	0	0	0	1	18.5775	-0.0445685	-0.0450117	0.00233619	2	-0.00104438	1.05156e-07
2	0	0	0	1	18.6075	-0.0475674	-0.0480184	0.00206691	2	-0.00104431	9.92497e-08
2	0	0	0	1	18.6375	-0.0505663	-0.0510188	0.00183564	2	-0.00104426	9.3652e-08
2	0	0	0	1	18.6675	-0.0535652	-0.0540294	0.0015962	2	-0.00104421	8.62415e-08
2	0	0	0	1	18.6975	-0.0565642	-0.0570113	0.00137541	2	-0.00104416	7.84142e-08
2	0	0	0	1	18.7275	-0.0595631	-0.0600047	0.00114502	2	-0.00104412	6.87066e-08
2	0	0	0	1	18.7575	-0.062562	-0.063002	0.000946423	2	-0.00104409	5.96265e-08
2	0	0	0	1	18.7875	-0.065561	-0.0660083	0.000735625	2	-0.00104407	4.85574e-08
2	0	0	0	1	18.8175	-0.0685599	-0.06901	0.000534912	2	-0.00104405	3.69143e-08
2	0	0	1	1	18.8473	-0.0715588	-0.0720051	0.000343786	2	-0.00104404	2.47543e-08
2	0	0	1	1	18.8773	-0.0745578	-0.0750282	0.000152551	2	-0.00104403	1.14456e-08
2	0	0	1	1	18.9073	-0.0775567	-0.078001	-6.90805e-06	2	-0.00104403	5.38835e-10
2	0	0	1	1	18.9373	-0.0805556	-0.0809923	-0.000185627	2	-0.00104403	1.50343e-08
2	0	0	1	1	18.9673	-0.0835545	-0.0839944	-0.000367457	2	-0.00104404	3.08643e-08
2	0	0	1	1	18.9973	-0.0865535	-0.0869861	-0.000540083	2	-0.00104405	4.69797e-08
2	0	0	1	1	19.0273	-0.0895524	-0.0899983	-0.000710869	2	-0.00104407	6.3977e-08
2	0	0	1	1	19.0573	-0.0925513	-0.0930009	-0.000875512	2	-0.0010441	8.14234e-08
2	0	0	1	1	19.0873	-0.0955502	-0.0960117	-0.00104029	2	-0.00104412	9.98797e-08
2	0	0	1	1	19.1173	-0.0985492	-0.0989998	-0.00120364	2	-0.00104416	1.1916e-07
2	0	0	1	1	19.1473	-0.101548	-0.10201	-0.00137509	2	-0.0010442	1.40273e-07
2	0	0	1	1	19.1773	-0.104547	-0.105009	-0.00151616	2	-0.00104424	1.5921e-07
2	0	0	1	1	19.2073	-0.107546	-0.108021	-0.00168073	2	-0.00104429	1.81553e-07
2	0	0	1	1	19.2373	-0.110545	-0.111006	-0.00185348	2	-0.00104434	2.05747e-07
2	0	0	1	1	19.2673	-0.113544	-0.114017	-0.00203249	2	-0.0010444	2.31739e-07
2	0	0	1	1	19.2973	-0.116543	-0.117017	-0.00218888	2	-0.00104446	2.56136e-07
2	0	0	1	1	19.3273	-0.119542	-0.120017	-0.00236618	2	-0.00104453	2.83982e-07
2	0	0	1	1	19.3573	-0.122541	-0.123009	-0.00253298	2	-0.00104461	3.11579e-07
2	0	0	1	1	19.3872	-0.12553	-0.125992	-0.00269176	2	-0.00104468	3.3914e-07
2	0	0	0	1	19.4171	-0.128538	-0.128995	-0.00285749	2	-0.00104477	3.68604e-07
2	0	0	0	1	19.4471	-0.131537	-0.131988	-0.00305979	2	-0.00104486	4.03855e-07
2	0	0	0	1	19.4771	-0.134536	-0.134981	-0.00323509	2	-0.00104495	4.36676e-07
2	0	0	0	1	19.5071	-0.137535	-0.138003	-0.00341524	2	-0.00104505	4.71315e-07
2	0	0	0	1	19.5371	-0.140534	-0.140978	-0.00362196	2	-0.00104516	5.10615e-07
2	0	0	0	1	19.5671	-0.143533	-0.143996	-0.00382075	2	-0.00104527	5.50174e-07
2	0	0	0	1	19.5971	-0.146532	-0.146999	-0.00401381	2	-0.00104539	5.90025e-07
2	0	0	0	1	19.6271	-0.149531	-0.150014	-0.00423069	2	-0.00104551	6.34661e-07
2	0	0	0	1	19.6571	-0.15253	-0.153001	-0.00444686	2	-0.00104564	6.80372e-07
2	0	0	0	1	19.6871	-0.155529	-0.156009	-0.00467694	2	-0.00104578	7.29644e-07
2	0	0	0	1	19.7171	-0.158528	-0.158995	-0.00488751	2	-0.00104592	7.77088e-07
2	0	0	0	1	19.7471	-0.161527	-0.161995	-0.0051433	2	-0.00104607	8.3319e-07
2	0	0	0	1	19.7771	-0.164526	-0.164987	-0.00537793	2	-0.00104623	8.87289e-07
2	0	0	0	1	19.8071	-0.167525	-0.168007	-0.00564249	2	-0.0010464	9.47979e-07
2	0	0	0	1	19.8371	-0.170523	-0.171001	-0.00589904	2	-0.00104657	1.00874e-06
2	0	0	0	1	19.8671	-0.173522	-0.173991	-0.00617178	2	-0.00104675	1.07383e-06
2	0	0	0	1	19.8971	-0.176521	-0.177	-0.0064528	2	-0.00104694	1.14215e-06
2	0	0	0	1	19.9271	-0.17952	-0.180015	-0.0067328	2	-0.00104714	1.212e-06
2	0	0	1	1	19.9569	-0.182519	-0.183006	-0.00707358	2	-0.00104735	1.29451e-06
2	0	0	1	1	19.9869	-0.185518	-0.185998	-0.0073595	2	-0.00104756	1.36885e-06
2	0	0	1	1	20.0169	-0.188517	-0.189005	-0.00770917	2	-0.00104779	1.45707e-06
2	0	0	1	1	20.0469	-0.191516	-0.192015	-0.0080537	2	-0.00104803	1.54644e-06
2	0	0	1	1	20.0769	-0.194515	-0.195013	-0.00839138	2	-0.00104827	1.63643e-06
2	0	0	1	1	20.1069	-0.197514	-0.198008	-0.00876426	2	-0.00104853	1.73539e-06
2	0	0	1	1	20.1369	-0.200513	-0.20101	-0.00915772	2	-0.0010488	1.84079e-06
2	0	0	1	1	20.1669	-0.203512	-0.20402	-0.00956504	2	-0.00104908	1.95146e-06
2	0	0	1	1	20.1969	-0.206511	-0.207011	-0.00996914	2	-0.00104937	2.06372e-06
2	0	0	0	1	20.2579	-0.212608	-0.213087	-0.0105948	2	-0.00105	2.25761e-06
2	0	0	0	1	20.2879	-0.215607	-0.216078	-0.0110571	2	-0.00105033	2.38919e-06
2	0	0	0	1	20.3179	-0.218606	-0.219081	-0.0115318	2	-0.00105068	2.5264e-06
2	0	0	0	1	20.3479	-0.221605	-0.222082	-0.012	2	-0.00105104	2.66498e-06
2	0	0	0	1	20.3779	-0.224604	-0.22509	-0.0124712	2	-0.00105142	2.80714e-06
2	0	0	0	1	20.4079	-0.227603	-0.228096	-0.0129978	2	-0.00105181	2.96474e-06
2	0	0	0	1	20.4379	-0.230602	-0.231073	-0.0135011	2	-0.00105221	3.11974e-06
2	0	0	0	1	20.4679	-0.233601	-0.234075	-0.0140516	2	-0.00105263	3.28914e-06
2	0	0	0	1	20.4979	-0.2366	-0.237071	-0.0146626	2	-0.00105307	3.47607e-06
2	0	0	1	1	20.5277	-0.239599	-0.240068	-0.0151927	2	-0.00105352	3.6473e-06
2	0	0	1	1	20.5577	-0.242598	-0.243075	-0.0157428	2	-0.00105399	3.82668e-06
2	0	0	1	1	20.5877	-0.245597	-0.246086	-0.0163304	2	-0.00105448	4.01867e-06
2	0	0	1	1	20.6177	-0.248596	-0.249072	-0.0168619	2	-0.00105499	4.19983e-06
2	0	0	1	1	20.6477	-0.251594	-0.25207	-0.017444	2	-0.00105551	4.39713e-06
2	0	0	1	1	20.6777	-0.254593	-0.255069	-0.0180526	2	-0.00105605	4.60466e-06
2	0	0	1	1	20.7077	-0.257592	-0.258073	-0.0185938	2	-0.0010566	4.79856e-06
2	0	0	1	1	20.7377	-0.260591	-0.261073	-0.0191588	2	-0.00105718	5.00184e-06
2	0	0	1	1	20.7677	-0.26359	-0.26407	-0.0197734	2	-0.00105777	5.22156e-06
2	0	0	1	1	20.7977	-0.266589	-0.267073	-0.0203349	2	-0.00105838	5.43089e-06
2	0	0	1	1	20.8277	-0.269588	-0.270076	-0.0209011	2	-0.001059	5.64487e-06
2	0	0	1	1	20.8577	-0.272587	-0.273073	-0.0215158	2	-0.00105965	5.87539e-06
2	0	0	1	1	20.8877	-0.275586	-0.276055	-0.0220905	2	-0.00106031	6.09819e-06
2	0	0	1	1	20.9177	-0.278585	-0.27907	-0.0227019	2	-0.00106099	6.33542e-06
2	0	0	1	1	20.9477	-0.281584	-0.282058	-0.0233038	2	-0.00106169	6.57303e-06
2	0	0	1	1	20.9777	-0.284583	-0.285063	-0.0238912	2	-0.0010624	6.81052e-06
2	0	0	1	1	21.0077	-0.287582	-0.288049	-0.0245162	2	-0.00106314	7.06187e-06
2	0	0	1	1	21.0377	-0.290581	-0.291051	-0.0251002	2	-0.00106389	7.30545e-06
2	0	0	1	1	21.0676	-0.293573	-0.29405	-0.0257179	2	-0.00106466	7.56235e-06
2	0	0	0	1	21.0975	-0.296578	-0.297065	-0.0263608	2	-0.00106544	7.83085e-06
2	0	0	0	1	21.1275	-0.299577	-0.300065	-0.0269698	2	-0.00106625	8.09269e-06
2	0	0	0	1	21.1575	-0.302576	-0.303054	-0.0276121	2	-0.00106708	8.36797e-06
2	0	0	0	1	21.1875	-0.305575	-0.306056	-0.028217	2	-0.00106792	8.63598e-06
2	0	0	0	1	21.2175	-0.308574	-0.309057	-0.0288571	2	-0.00106878	8.91847e-06
2	0	0	0	1	21.2475	-0.311573	-0.312058	-0.0295266	2	-0.00106967	9.21401e-06
2	0	0	0	1	21.2775	-0.314572	-0.315061	-0.0301367	2	-0.00107057	9.49492e-06
2	0	0	0	1	21.3075	-0.317571	-0.318054	-0.0308071	2	-0.00107149	9.79833e-06
2	0	0	0	1	21.3375	-0.32057	-0.321054	-0.0314724	2	-0.00107243	1.01043e-05
2	0	0	0	1	21.3675	-0.323569	-0.324056	-0.032094	2	-0.00107339	1.04003e-05
2	0	0	0	1	21.3975	-0.326568	-0.327064	-0.0327628	2	-0.00107437	1.07155e-05
2	0	0	0	1	21.4275	-0.329567	-0.330045	-0.033459	2	-0.00107537	1.1043e-05
2	0	0	0	1	21.4575	-0.332566	-0.333055	-0.0341243	2	-0.0010764	1.13653e-05
2	0	0	0	1	21.4875	-0.335564	-0.33605	-0.0348186	2	-0.00107744	1.17008e-05
2	0	0	0	1	21.5175	-0.338563	-0.339042	-0.0354727	2	-0.0010785	1.20267e-05
2	0	0	0	1	21.5475	-0.341562	-0.342047	-0.0361827	2	-0.00107958	1.23762e-05
2	0	0	0	1	21.5775	-0.344561	-0.345058	-0.0369296	2	-0.00108069	1.27428e-05
2	0	0	0	1	21.6075	-0.34756	-0.348057	-0.0376515	2	-0.00108181	1.31048e-05
2	0	0	1	1	21.6373	-0.350559	-0.351056	-0.0383976	2	-0.00108295	1.34797e-05
2	0	0	1	1	21.6673	-0.353558	-0.354061	-0.039089	2	-0.00108412	1.38399e-05
2	0	0	1	1	21.6973	-0.356557	-0.357041	-0.0397913	2	-0.00108531	1.42071e-05
2	0	0	1	1	21.7273	-0.359556	-0.36005	-0.0405417	2	-0.00108653	1.45971e-05
2	0	0	1	1	21.7573	-0.362555	-0.363047	-0.0412804	2	-0.00108776	1.49867e-05
2	0	0	1	1	21.7873	-0.365554	-0.366035	-0.041991	2	-0.00108902	1.53702e-05
2	0	0	1	1	21.8173	-0.368553	-0.369038	-0.042702	2	-0.0010903	1.57586e-05
2	0	0	1	1	21.8473	-0.371552	-0.372053	-0.0434996	2	-0.0010916	1.61841e-05
2	0	0	1	1	21.8773	-0.374551	-0.375049	-0.0442577	2	-0.00109292	1.65988e-05
2	0	0	1	1	21.9073	-0.377549	-0.37804	-0.0449877	2	-0.00109427	1.70072e-05
2	0	0	1	1	21.9373	-0.380548	-0.381055	-0.0457665	2	-0.00109564	1.74395e-05
2	0	0	1	1	21.9673	-0.383547	-0.384057	-0.046548	2	-0.00109703	1.78771e-05
2	0	0	1	1	21.9973	-0.386546	-0.387027	-0.0472937	2	-0.00109844	1.83039e-05
2	0	0	1	1	22.0273	-0.389545	-0.390027	-0.0480376	2	-0.00109988	1.87359e-05
2	0	0	1	1	22.0573	-0.392544	-0.393023	-0.0488083	2	-0.00110134	1.91828e-05
2	0	0	1	1	22.0873	-0.395543	-0.396045	-0.0495397	2	-0.00110282	1.96199e-05
2	0	0	1	1	22.1173	-0.398542	-0.399028	-0.0502774	2	-0.00110433	2.00621e-05
2	0	0	1	1	22.1473	-0.401541	-0.402025	-0.0510298	2	-0.00110585	2.05153e-05
2	0	0	1	1	22.1773	-0.40454	-0.405028	-0.0518176	2	-0.0011074	2.09876e-05
2	0	0	0	1	22.2071	-0.407539	-0.408035	-0.0525336	2	-0.00110896	2.14356e-05
2	0	0	0	1	22.2371	-0.410538	-0.411035	-0.0532405	2	-0.00111056	2.18837e-05
2	0	0	0	1	22.2671	-0.413537	-0.414024	-0.0539284	2	-0.00111217	2.23277e-05
2	0	0	0	1	22.2971	-0.416536	-0.417023	-0.0546391	2	-0.00111381	2.27858e-05
2	0	0	0	1	22.3271	-0.419534	-0.420038	-0.055397	2	-0.00111547	2.32688e-05
2	0	0	0	1	22.3571	-0.422533	-0.423038	-0.0560555	2	-0.00111715	2.37136e-05
2	0	0	0	1	22.3871	-0.425532	-0.426039	-0.0567405	2	-0.00111885	2.41737e-05
2	0	0	0	1	22.4171	-0.428531	-0.429037	-0.057414	2	-0.00112057	2.46328e-05
2	0	0	0	1	22.4471	-0.43153	-0.432038	-0.0580709	2	-0.00112231	2.50888e-05
2	0	0	0	1	22.4771	-0.434529	-0.435036	-0.058692	2	-0.00112406	2.55332e-05
2	0	0	0	1	22.5071	-0.437528	-0.438035	-0.0593308	2	-0.00112584	2.59889e-05
2	0	0	0	1	22.5371	-0.440527	-0.441029	-0.0600138	2	-0.00112764	2.64678e-05
2	0	0	0	1	22.5671	-0.443526	-0.444036	-0.0605936	2	-0.00112945	2.69057e-05
2	0	0	0	1	22.5971	-0.446525	-0.447013	-0.0611674	2	-0.00113129	2.73426e-05
2	0	0	0	1	22.6271	-0.449524	-0.450027	-0.0617367	2	-0.00113314	2.77832e-05
2	0	0	0	1	22.6571	-0.452523	-0.453051	-0.0622907	2	-0.001135	2.82209e-05
2	0	0	0	1	22.6871	-0.455522	-0.456005	-0.0628391	2	-0.00113689	2.86549e-05
2	0	0	0	1	22.7171	-0.45852	-0.459032	-0.0633771	2	-0.00113879	2.90921e-05
2	0	0	0	1	22.747	-0.461515	-0.462022	-0.0638945	2	-0.0011407	2.95207e-05
2	0	0	1	1	22.7769	-0.464518	-0.46504	-0.0644268	2	-0.00114262	2.99611e-05
2	0	0	1	1	22.8069	-0.467517	-0.468024	-0.064887	2	-0.00114457	3.03686e-05
2	0	0	1	1	22.8369	-0.470516	-0.471032	-0.0653322	2	-0.00114653	3.07735e-05
2	0	0	1	1	22.8669	-0.473515	-0.474043	-0.0658	2	-0.00114851	3.1192e-05
2	0	0	1	1	22.8969	-0.476514	-0.477033	-0.0662663	2	-0.00115049	3.16112e-05
2	0	0	1	1	22.9269	-0.479513	-0.480026	-0.0667287	2	-0.0011525	3.20315e-05
2	0	0	1	1	22.9569	-0.482512	-0.483019	-0.0671456	2	-0.00115451	3.24326e-05
2	0	0	1	1	22.9869	-0.485511	-0.486008	-0.0675454	2	-0.00115654	3.28276e-05
2	0	0	1	1	23.0169	-0.48851	-0.489027	-0.0679522	2	-0.00115858	3.32304e-05
2	0	0	1	1	23.0469	-0.491509	-0.492016	-0.0683521	2	-0.00116063	3.36303e-05
2	0	0	1	1	23.0769	-0.494508	-0.49501	-0.0687663	2	-0.0011627	3.404e-05
2	0	0	1	1	23.1069	-0.497507	-0.49801	-0.0691584	2	-0.00116477	3.44416e-05
2	0	0	1	1	23.1369	-0.500506	-0.501016	-0.0695233	2	-0.00116686	3.48323e-05
2	0	0	1	1	23.1669	-0.503505	-0.503999	-0.0699187	2	-0.00116896	3.5239e-05
2	0	0	1	1	23.1969	-0.506503	-0.507002	-0.0702683	2	-0.00117107	3.56262e-05
2	0	0	1	1	23.2269	-0.509502	-0.510012	-0.0706628	2	-0.00117319	3.60389e-05
2	0	0	1	1	23.2569	-0.512501	-0.513008	-0.0709513	2	-0.00117532	3.63986e-05
2	0	0	1	1	23.2869	-0.5155	-0.516018	-0.0713414	2	-0.00117746	3.68134e-05
2	0	0	0	1	23.3167	-0.518499	-0.518997	-0.0717207	2	-0.0011796	3.72228e-05
2	0	0	0	1	23.3467	-0.521498	-0.521998	-0.0720407	2	-0.00118177	3.76051e-05
2	0	0	0	1	23.3767	-0.524497	-0.525021	-0.0723952	2	-0.00118394	3.8009e-05
2	0	0	0	1	23.4067	-0.527496	-0.528008	-0.0727658	2	-0.00118612	3.84209e-05
2	0	0	0	1	23.4367	-0.530495	-0.531014	-0.0730857	2	-0.00118832	3.88095e-05
2	0	0	0	1	23.4667	-0.533494	-0.534015	-0.073363	2	-0.00119052	3.91769e-05
2	0	0	0	1	23.4967	-0.536493	-0.536999	-0.073711	2	-0.00119273	3.95828e-05
2	0	0	0	1	23.5267	-0.539492	-0.540011	-0.0740483	2	-0.00119496	3.99868e-05
2	0	0	0	1	23.5567	-0.542491	-0.542989	-0.0743544	2	-0.00119719	4.03736e-05
2	0	0	0	1	23.5867	-0.545489	-0.545993	-0.0747107	2	-0.00119944	4.07915e-05
2	0	0	0	1	23.6167	-0.548488	-0.549004	-0.0750667	2	-0.00120169	4.12119e-05
2	0	0	0	1	23.6467	-0.551487	-0.551995	-0.0753672	2	-0.00120395	4.16023e-05
2	0	0	0	1	23.6767	-0.554486	-0.554995	-0.0756532	2	-0.00120622	4.19872e-05
2	0	0	0	1	23.7067	-0.557485	-0.557977	-0.0760196	2	-0.00120851	4.24172e-05
2	0	0	0	1	23.7367	-0.560484	-0.560982	-0.076333	2	-0.0012108	4.28214e-05
2	0	0	0	1	23.7667	-0.563483	-0.56398	-0.0766344	2	-0.0012131	4.32203e-05
2	0	0	0	1	23.7967	-0.566482	-0.566981	-0.0769635	2	-0.00121541	4.36368e-05
2	0	0	0	1	23.8267	-0.569481	-0.569981	-0.0773068	2	-0.00121773	4.40634e-05
2	0	0	0	1	23.8567	-0.57248	-0.572992	-0.077625	2	-0.00122006	4.44785e-05
2	0	0	1	1	23.8865	-0.575479	-0.575983	-0.0779405	2	-0.00122239	4.48924e-05
2	0	0	1	1	23.9165	-0.578478	-0.578987	-0.0782901	2	-0.00122474	4.5329e-05
2	0	0	1	1	23.9465	-0.581477	-0.581976	-0.078594	2	-0.0012271	4.57398e-05
2	0	0	1	1	23.9765	-0.584476	-0.58498	-0.0789236	2	-0.00122947	4.61687e-05
2	0	0	1	1	24.0065	-0.587475	-0.587984	-0.0792997	2	-0.00123185	4.66269e-05
2	0	0	1	1	24.0365	-0.590473	-0.59099	-0.0795907	2	-0.00123424	4.70374e-05
2	0	0	1	1	24.0665	-0.593472	-0.593975	-0.0799209	2	-0.00123664	4.7471e-05
2	0	0	1	1	24.0965	-0.596471	-0.596958	-0.0802403	2	-0.00123905	4.79e-05
2	0	0	1	1	24.1265	-0.59947	-0.599963	-0.0806267	2	-0.00124147	4.8373e-05
2	0	0	1	1	24.1565	-0.602469	-0.602981	-0.0809095	2	-0.0012439	4.87868e-05
2	0	0	1	1	24.1865	-0.605468	-0.605969	-0.0813017	2	-0.00124634	4.92663e-05
2	0	0	1	1	24.2165	-0.608467	-0.608974	-0.0816463	2	-0.00124879	4.97205e-05
2	0	0	1	1	24.2465	-0.611466	-0.611967	-0.0820418	2	-0.00125126	5.02069e-05
2	0	0	1	1	24.2765	-0.614465	-0.614981	-0.0823787	2	-0.00125373	5.06613e-05
2	0	0	1	1	24.3065	-0.617464	-0.617984	-0.0827763	2	-0.00125621	5.11544e-05
2	0	0	1	1	24.3365	-0.620463	-0.620979	-0.0831571	2	-0.00125871	5.16388e-05
2	0	0	1	1	24.3665	-0.623462	-0.623969	-0.0835485	2	-0.00126122	5.21317e-05
2	0	0	1	1	24.3965	-0.626461	-0.626965	-0.0839769	2	-0.00126374	5.26506e-05
2	0	0	1	1	24.4264	-0.629455	-0.629976	-0.0843907	2	-0.00126626	5.31641e-05
2	0	0	0	1	24.4563	-0.632458	-0.632969	-0.0847723	2	-0.0012688	5.36582e-05
2	0	0	0	1	24.4863	-0.635457	-0.635962	-0.0851971	2	-0.00127135	5.41821e-05
2	0	0	0	1	24.5163	-0.638456	-0.638943	-0.0855669	2	-0.00127392	5.46724e-05
2	0	0	0	1	24.5463	-0.641455	-0.641956	-0.0860365	2	-0.0012765	5.52316e-05
2	0	0	0	1	24.5763	-0.644454	-0.644948	-0.0864994	2	-0.0012791	5.57876e-05
2	0	0	0	1	24.6063	-0.647453	-0.647949	-0.0869682	2	-0.00128171	5.6351e-05
2	0	0	0	1	24.6363	-0.650452	-0.650956	-0.0873835	2	-0.00128433	5.68828e-05
2	0	0	0	1	24.6663	-0.653451	-0.653949	-0.0878496	2	-0.00128696	5.74492e-05
2	0	0	0	1	24.6963	-0.65645	-0.656946	-0.0883467	2	-0.00128961	5.8039e-05
2	0	0	0	1	24.7263	-0.659449	-0.659948	-0.0887919	2	-0.00129228	5.8598e-05
2	0	0	0	1	24.7563	-0.662448	-0.662949	-0.0893356	2	-0.00129496	5.92249e-05
2	0	0	0	1	24.7863	-0.665447	-0.665963	-0.0898183	2	-0.00129765	5.98156e-05
2	0	0	0	1	24.8163	-0.668446	-0.668946	-0.0903367	2	-0.00130036	6.04304e-05
2	0	0	0	1	24.8463	-0.671444	-0.671947	-0.0908476	2	-0.00130308	6.10448e-05
2	0	0	0	1	24.8763	-0.674443	-0.674937	-0.0913439	2	-0.00130583	6.16514e-05
2	0	0	0	1	24.9063	-0.677442	-0.677945	-0.0919003	2	-0.00130858	6.23034e-05
2	0	0	0	1	24.9363	-0.680441	-0.680947	-0.092452	2	-0.00131135	6.29549e-05
2	0	0	0	1	24.9663	-0.68344	-0.683941	-0.0930334	2	-0.00131414	6.36294e-05
2	0	0	1	1	24.9961	-0.686439	-0.686946	-0.093601	2	-0.00131693	6.42989e-05
2	0	0	1	1	25.0261	-0.689438	-0.689944	-0.0941546	2	-0.00131976	6.49614e-05
2	0	0	1	1	25.0561	-0.692437	-0.692944	-0.0947715	2	-0.0013226	6.56713e-05
2	0	0	1	1	25.0861	-0.695436	-0.695934	-0.0953597	2	-0.00132545	6.63641e-05
2	0	0	1	1	25.1161	-0.698435	-0.698929	-0.0959263	2	-0.00132833	6.70457e-05
2	0	0	1	1	25.1461	-0.701434	-0.701927	-0.0965176	2	-0.00133123	6.77483e-05
2	0	0	1	1	25.1761	-0.704433	-0.704948	-0.097199	2	-0.00133414	6.85203e-05
2	0	0	1	1	25.2061	-0.707432	-0.707944	-0.0978434	2	-0.00133707	6.92676e-05
2	0	0	1	1	25.2361	-0.710431	-0.710934	-0.0984475	2	-0.00134002	6.99897e-05
2	0	0	1	1	25.2661	-0.713429	-0.713934	-0.0990957	2	-0.00134299	7.07478e-05
2	0	0	1	1	25.2961	-0.716428	-0.716932	-0.0997842	2	-0.00134598	7.15384e-05
2	0	0	1	1	25.3261	-0.719427	-0.719925	-0.100467	2	-0.00134899	7.23287e-05
2	0	0	1	1	25.3561	-0.722426	-0.722926	-0.101149	2	-0.00135202	7.31235e-05
2	0	0	1	1	25.3861	-0.725425	-0.725924	-0.101894	2	-0.00135508	7.39674e-05
2	0	0	0	1	25.4471	-0.731523	-0.731963	-0.102673	2	-0.00136133	7.5153e-05
2	0	0	0	1	25.4771	-0.734522	-0.734963	-0.103504	2	-0.00136444	7.60717e-05
2	0	0	0	1	25.5071	-0.737521	-0.737958	-0.104131	2	-0.00136758	7.68442e-05
2	0	0	0	1	25.5371	-0.74052	-0.74094	-0.104887	2	-0.00137074	7.77146e-05
2	0	0	1	1	25.5669	-0.743519	-0.743954	-0.105787	2	-0.0013739	7.87009e-05
2	0	0	1	1	25.5969	-0.746518	-0.746942	-0.106652	2	-0.00137711	7.96632e-05
2	0	0	1	1	25.6269	-0.749517	-0.749956	-0.10748	2	-0.00138034	8.06053e-05
2	0	0	1	1	25.6569	-0.752515	-0.752928	-0.108347	2	-0.0013836	8.15776e-05
2	0	0	1	1	25.6869	-0.755514	-0.755944	-0.109225	2	-0.00138689	8.25682e-05
2	0	0	1	1	25.7169	-0.758513	-0.758938	-0.110193	2	-0.0013902	8.36294e-05
2	0	0	1	1	25.7469	-0.761512	-0.76194	-0.111113	2	-0.00139354	8.46613e-05
2	0	0	1	1	25.7769	-0.764511	-0.764941	-0.112113	2	-0.00139691	8.57594e-05
2	0	0	1	1	25.8069	-0.76751	-0.767933	-0.113102	2	-0.00140032	8.68549e-05
2	0	0	1	1	25.8369	-0.770509	-0.770944	-0.114187	2	-0.00140375	8.80316e-05
2	0	0	1	1	25.8669	-0.773508	-0.77395	-0.115264	2	-0.00140721	8.92086e-05
2	0	0	1	1	25.8969	-0.776507	-0.776932	-0.116475	2	-0.00141071	9.04927e-05
2	0	0	1	1	25.9269	-0.779506	-0.779933	-0.117519	2	-0.00141424	9.16571e-05
2	0	0	1	1	25.9569	-0.782505	-0.782929	-0.118771	2	-0.00141781	9.29896e-05
2	0	0	1	1	25.9869	-0.785504	-0.785918	-0.11994	2	-0.00142142	9.42629e-05
2	0	0	1	1	26.0169	-0.788503	-0.788926	-0.12134	2	-0.00142506	9.57281e-05
2	0	0	1	1	26.0469	-0.791502	-0.791921	-0.122642	2	-0.00142874	9.7123e-05
2	0	0	1	1	26.0769	-0.794501	-0.7949	-0.123903	2	-0.00143247	9.84905e-05
2	0	0	1	1	26.1068	-0.797499	-0.797891	-0.125439	2	-0.00143622	0.000100087
2	0	0	0	1	26.1367	-0.800498	-0.800911	-0.127034	2	-0.00144002	0.000101743
2	0	0	0	1	26.1667	-0.803497	-0.8039	-0.12859	2	-0.00144388	0.000103374
2	0	0	0	1	26.1967	-0.806496	-0.806906	-0.130233	2	-0.00144778	0.000105086
2	0	0	0	1	26.2267	-0.809495	-0.80991	-0.131823	2	-0.00145174	0.000106764
2	0	0	0	1	26.2567	-0.812494	-0.812904	-0.133643	2	-0.00145574	0.000108639
2	0	0	0	1	26.2867	-0.815493	-0.815912	-0.135528	2	-0.0014598	0.000110579
2	0	0	0	1	26.3167	-0.818492	-0.818898	-0.137304	2	-0.00146392	0.000112438
2	0	0	0	1	26.3467	-0.821491	-0.821915	-0.139328	2	-0.00146809	0.000114516
2	0	0	0	1	26.3767	-0.82449	-0.824896	-0.141367	2	-0.00147232	0.000116613
2	0	0	0	1	26.4067	-0.827489	-0.827881	-0.143305	2	-0.00147662	0.00011864
2	0	0	0	1	26.4367	-0.830488	-0.830905	-0.145644	2	-0.00148097	0.000121016
2	0	0	0	1	26.4667	-0.833487	-0.833925	-0.147856	2	-0.0014854	0.000123301
2	0	0	0	1	26.4967	-0.836486	-0.836904	-0.150233	2	-0.0014899	0.000125731
2	0	0	0	1	26.5267	-0.839484	-0.8399	-0.152636	2	-0.00149446	0.000128199
2	0	0	0	1	26.5567	-0.842483	-0.842898	-0.155258	2	-0.00149911	0.000130867
2	0	0	0	1	26.5867	-0.845482	-0.845873	-0.157727	2	-0.00150383	0.000133417
2	0	0	0	1	26.6167	-0.848481	-0.848872	-0.160655	2	-0.00150863	0.000136376
2	0	0	0	1	26.6467	-0.85148	-0.851892	-0.163439	2	-0.00151351	0.000139233
2	0	0	1	1	26.6765	-0.854479	-0.854886	-0.166326	2	-0.00151845	0.00014219
2	0	0	1	1	26.7065	-0.857478	-0.857899	-0.169474	2	-0.00152351	0.000145392
2	0	0	1	1	26.7365	-0.860477	-0.860916	-0.172705	2	-0.00152867	0.000148684
2	0	0	1	1	26.7665	-0.863476	-0.863903	-0.176062	2	-0.00153392	0.000152101
2	0	0	1	1	26.7965	-0.866475	-0.866897	-0.17954	2	-0.00153928	0.000155643
2	0	0	1	1	26.8265	-0.869474	-0.869891	-0.183032	2	-0.00154474	0.000159218
2	0	0	1	1	26.8565	-0.872473	-0.872877	-0.18668	2	-0.00155031	0.000162948
2	0	0	1	1	26.8865	-0.875472	-0.875891	-0.190561	2	-0.00155599	0.000166911
2	0	0	1	1	26.9165	-0.87847	-0.878887	-0.194677	2	-0.0015618	0.000171099
2	0	0	1	1	26.9465	-0.881469	-0.881901	-0.198804	2	-0.00156772	0.000175326
2	0	0	1	1	26.9765	-0.884468	-0.88489	-0.203099	2	-0.00157377	0.00017972
2	0	0	1	1	27.0065	-0.887467	-0.887907	-0.207568	2	-0.00157996	0.000184301
2	0	0	1	1	27.0365	-0.890466	-0.890898	-0.212222	2	-0.00158628	0.000189068
2	0	0	1	1	27.0665	-0.893465	-0.893879	-0.217073	2	-0.00159274	0.000194037
2	0	0	1	1	27.0965	-0.896464	-0.896878	-0.22202	2	-0.00159936	0.000199125
2	0	0	1	1	27.1265	-0.899463	-0.899875	-0.227275	2	-0.00160612	0.000204519
2	1	0	0	0	27.1379	-0.899363	-0.899781	-0.225156	2	-0.0016087	0.000202591
2	1	0	0	0	27.1679	-0.896364	-0.896759	-0.216472	2	-0.0016153	0.000194123
2	1	0	0	0	27.1979	-0.893365	-0.893787	-0.20955	2	-0.00162166	0.000187293
2	1	0	0	0	27.2279	-0.890366	-0.89077	-0.203138	2	-0.00162782	0.00018095
2	1	0	0	0	27.2579	-0.887367	-0.887777	-0.197072	2	-0.0016338	0.000174956
2	1	0	0	0	27.2879	-0.884368	-0.884768	-0.191495	2	-0.0016396	0.000169429
2	1	0	0	0	27.3179	-0.881369	-0.88179	-0.186029	2	-0.00164524	0.000164038
2	1	0	0	0	27.3479	-0.878371	-0.878781	-0.181008	2	-0.00165072	0.000159067
2	1	0	0	0	27.3779	-0.875372	-0.87579	-0.175945	2	-0.00165605	0.00015409
2	1	0	0	0	27.4079	-0.872373	-0.87281	-0.171268	2	-0.00166123	0.000149485
2	1	0	0	0	27.4379	-0.869374	-0.869797	-0.166725	2	-0.00166627	0.000145016
2	1	0	0	0	27.4679	-0.866375	-0.866805	-0.162388	2	-0.00167118	0.000140758
2	1	0	0	0	27.4979	-0.863376	-0.863799	-0.158159	2	-0.00167597	0.000136618
2	1	0	0	0	27.5279	-0.860377	-0.860814	-0.154052	2	-0.00168062	0.00013261
2	1	0	0	0	27.5579	-0.857378	-0.857795	-0.15013	2	-0.00168516	0.000128781
2	1	0	0	0	27.5879	-0.854379	-0.854786	-0.14633	2	-0.00168958	0.000125081
2	1	0	1	0	27.6177	-0.85138	-0.851799	-0.142767	2	-0.00169387	0.000121609
2	1	0	1	0	27.6477	-0.848381	-0.848787	-0.139294	2	-0.00169807	0.000118231
2	1	0	1	0	27.6777	-0.845382	-0.845804	-0.135893	2	-0.00170218	0.000114939
2	1	0	1	0	27.7077	-0.842383	-0.842806	-0.132711	2	-0.00170618	0.00011185
2	1	0	1	0	27.7377	-0.839384	-0.839823	-0.129621	2	-0.00171009	0.000108859
2	1	0	1	0	27.7677	-0.836385	-0.836818	-0.126676	2	-0.00171391	0.000106005
2	1	0	1	0	27.7977	-0.833387	-0.833827	-0.123628	2	-0.00171764	0.000103084
2	1	0	1	0	27.8277	-0.830388	-0.830812	-0.120906	2	-0.00172129	0.00010045
2	1	0	1	0	27.8577	-0.827389	-0.827817	-0.11816	2	-0.00172485	9.78149e-05
2	1	0	1	0	27.8877	-0.82439	-0.824825	-0.115704	2	-0.00172833	9.54358e-05
2	1	0	1	0	27.9177	-0.821391	-0.821809	-0.113185	2	-0.00173174	9.30168e-05
2	1	0	1	0	27.9477	-0.818392	-0.818813	-0.110574	2	-0.00173507	9.05391e-05
2	1	0	1	0	27.9777	-0.815393	-0.815809	-0.10833	2	-0.00173833	8.83766e-05
2	1	0	1	0	28.0077	-0.812394	-0.812825	-0.105997	2	-0.00174152	8.61567e-05
2	1	0	1	0	28.0377	-0.809395	-0.809847	-0.103857	2	-0.00174464	8.41086e-05
2	1	0	1	0	28.0677	-0.806396	-0.806806	-0.101736	2	-0.0017477	8.20809e-05
2	1	0	1	0	28.0977	-0.803397	-0.803812	-0.0997487	2	-0.0017507	8.01792e-05
2	1	0	1	0	28.1277	-0.800398	-0.800793	-0.0977127	2	-0.00175364	7.82476e-05
2	1	0	1	0	28.1576	-0.797395	-0.797816	-0.0957766	2	-0.00175651	7.64121e-05
2	1	0	0	0	28.1875	-0.7944	-0.794819	-0.0939696	2	-0.00175933	7.46889e-05
2	1	0	0	0	28.2175	-0.791402	-0.791844	-0.0923107	2	-0.0017621	7.30957e-05
2	1	0	0	0	28.2475	-0.788403	-0.78883	-0.0905576	2	-0.00176481	7.14346e-05
2	1	0	0	0	28.2775	-0.785404	-0.78583	-0.0888896	2	-0.00176748	6.98522e-05
2	1	0	0	0	28.3075	-0.782405	-0.78284	-0.0873664	2	-0.0017701	6.83939e-05
2	1	0	0	0	28.3375	-0.779406	-0.779848	-0.0857284	2	-0.00177267	6.68551e-05
2	1	0	0	0	28.3675	-0.776407	-0.776831	-0.0842635	2	-0.0017752	6.54584e-05
2	1	0	0	0	28.3975	-0.773408	-0.773852	-0.0828026	2	-0.00177768	6.40769e-05
2	1	0	0	0	28.4275	-0.770409	-0.770831	-0.0814239	2	-0.00178012	6.2764e-05
2	1	0	0	0	28.4575	-0.76741	-0.767847	-0.0800537	2	-0.00178252	6.1469e-05
2	1	0	0	0	28.4875	-0.764411	-0.764829	-0.0786747	2	-0.00178488	6.01727e-05
2	1	0	0	0	28.5175	-0.761412	-0.761838	-0.0774811	2	-0.0017872	5.9028e-05
2	1	0	0	0	28.5475	-0.758413	-0.758834	-0.0761983	2	-0.00178949	5.78219e-05
2	1	0	0	0	28.5775	-0.755414	-0.755834	-0.075122	2	-0.00179173	5.67797e-05
2	1	0	0	0	28.6075	-0.752416	-0.752819	-0.0740146	2	-0.00179395	5.57196e-05
2	1	0	0	0	28.6375	-0.749417	-0.749841	-0.0729361	2	-0.00179613	5.46905e-05
2	1	0	0	0	28.6675	-0.746418	-0.746827	-0.0717525	2	-0.00179827	5.35867e-05
2	1	0	0	0	28.6975	-0.743419	-0.743827	-0.0706572	2	-0.00180039	5.25568e-05
2	1	0	1	0	28.7273	-0.74042	-0.740853	-0.0696595	2	-0.00180246	5.16074e-05
2	1	0	1	0	28.7573	-0.737421	-0.737861	-0.0687662	2	-0.00180451	5.07399e-05
2	1	0	1	0	28.7873	-0.734422	-0.734869	-0.0678781	2	-0.00180654	4.98815e-05
2	1	0	1	0	28.8173	-0.731423	-0.731865	-0.0668836	2	-0.00180853	4.89498e-05
2	1	0	1	0	28.8473	-0.728424	-0.728864	-0.0660065	2	-0.0018105	4.81098e-05
2	1	0	1	0	28.8773	-0.725425	-0.725854	-0.0651367	2	-0.00181245	4.72797e-05
2	1	0	1	0	28.9073	-0.722426	-0.722856	-0.0642445	2	-0.00181437	4.64395e-05
2	1	0	1	0	28.9373	-0.719427	-0.719845	-0.0634818	2	-0.00181626	4.56971e-05
2	1	0	1	0	28.9673	-0.716428	-0.716842	-0.0626303	2	-0.00181813	4.4896e-05
2	1	0	1	0	28.9973	-0.713429	-0.71386	-0.0617578	2	-0.00181997	4.40864e-05
2	1	0	1	0	29.0273	-0.710431	-0.710858	-0.0611438	2	-0.00182179	4.34645e-05
2	1	0	1	0	29.0573	-0.707432	-0.707851	-0.0603734	2	-0.00182359	4.27354e-05
2	1	0	1	0	29.0873	-0.704433	-0.704842	-0.0596579	2	-0.00182537	4.20494e-05
2	1	0	1	0	29.1173	-0.701434	-0.701839	-0.0589138	2	-0.00182713	4.1348e-05
2	1	0	1	0	29.1473	-0.698435	-0.69886	-0.058296	2	-0.00182886	4.07408e-05
2	1	0	1	0	29.1773	-0.695436	-0.695873	-0.0576363	2	-0.00183058	4.01075e-05
2	1	0	1	0	29.2073	-0.692437	-0.692848	-0.0569018	2	-0.00183227	3.94243e-05
2	1	0	1	0	29.2373	-0.689438	-0.689858	-0.0562095	2	-0.00183395	3.87766e-05
2	1	0	1	0	29.2673	-0.686439	-0.686849	-0.0557415	2	-0.0018356	3.8286e-05
2	1	0	0	0	29.2971	-0.68344	-0.683866	-0.0549806	2	-0.00183723	3.75994e-05
2	1	0	0	0	29.3271	-0.680441	-0.680859	-0.0543455	2	-0.00183885	3.70016e-05
2	1	0	0	0	29.3571	-0.677442	-0.677864	-0.0538018	2	-0.00184045	3.64703e-05
2	1	0	0	0	29.3871	-0.674443	-0.674877	-0.0531715	2	-0.00184203	3.58842e-05
2	1	0	0	0	29.4171	-0.671444	-0.671877	-0.0526606	2	-0.0018436	3.53815e-05
2	1	0	0	0	29.4471	-0.668446	-0.668875	-0.0520984	2	-0.00184515	3.48473e-05
2	1	0	0	0	29.4771	-0.665447	-0.665875	-0.0515167	2	-0.00184668	3.43037e-05
2	1	0	0	0	29.5071	-0.662448	-0.662872	-0.0509537	2	-0.00184819	3.37758e-05
2	1	0	0	0	29.5371	-0.659449	-0.659875	-0.0504185	2	-0.00184969	3.32699e-05
2	1	0	0	0	29.5671	-0.65645	-0.656881	-0.0498272	2	-0.00185117	3.27305e-05
2	1	0	0	0	29.5971	-0.653451	-0.653884	-0.0492452	2	-0.00185264	3.22007e-05
2	1	0	0	0	29.6271	-0.650452	-0.650872	-0.0489019	2	-0.00185409	3.18289e-05
2	1	0	1	0	29.6881	-0.644354	-0.644781	-0.0474607	2	-0.00185697	3.06018e-05
2	1	0	1	0	29.7181	-0.641355	-0.641757	-0.0469603	2	-0.00185838	3.01371e-05
2	1	0	1	0	29.7481	-0.638356	-0.638778	-0.0464493	2	-0.00185977	2.96708e-05
2	1	0	1	0	29.7781	-0.635357	-0.63576	-0.0459435	2	-0.00186115	2.92091e-05
2	1	0	1	0	29.8081	-0.632358	-0.63277	-0.0454903	2	-0.00186252	2.87849e-05
2	1	0	1	0	29.838	-0.62935	-0.629767	-0.0449923	2	-0.00186386	2.83347e-05
2	1	0	0	0	29.8679	-0.626361	-0.626794	-0.0445465	2	-0.00186519	2.79215e-05
2	1	0	0	0	29.8979	-0.623362	-0.623768	-0.0440622	2	-0.00186652	2.74846e-05
2	1	0	0	0	29.9279	-0.620363	-0.620765	-0.0435878	2	-0.00186782	2.70578e-05
2	1	0	0	0	29.9579	-0.617364	-0.617795	-0.0431638	2	-0.00186912	2.66664e-05
2	1	0	0	0	29.9879	-0.614365	-0.614785	-0.0426971	2	-0.0018704	2.62496e-05
2	1	0	0	0	30.0179	-0.611366	-0.611767	-0.0422279	2	-0.00187167	2.58336e-05
2	1	0	0	0	30.0479	-0.608367	-0.608761	-0.0418195	2	-0.00187292	2.54581e-05
2	1	0	0	0	30.0779	-0.605368	-0.605752	-0.0413609	2	-0.00187416	2.50545e-05
2	1	0	0	0	30.1079	-0.602369	-0.602747	-0.0409357	2	-0.00187539	2.46739e-05
2	1	0	0	0	30.1379	-0.59937	-0.599776	-0.0404793	2	-0.0018766	2.42785e-05
2	1	0	0	0	30.1679	-0.596371	-0.596769	-0.0400277	2	-0.0018778	2.38873e-05
2	1	0	0	0	30.1979	-0.593372	-0.593779	-0.0396342	2	-0.00187899	2.3534e-05
2	1	0	0	0	30.2279	-0.590373	-0.59077	-0.0392354	2	-0.00188017	2.31791e-05
2	1	0	0	0	30.2579	-0.587375	-0.587771	-0.0387734	2	-0.00188133	2.27899e-05
2	1	0	0	0	30.2879	-0.584376	-0.584774	-0.038393	2	-0.00188248	2.24512e-05
2	1	0	0	0	30.3179	-0.581377	-0.581778	-0.037941	2	-0.00188362	2.20733e-05
2	1	0	0	0	30.3479	-0.578378	-0.578795	-0.0375684	2	-0.00188474	2.17444e-05
2	1	0	0	0	30.3779	-0.575379	-0.575798	-0.037126	2	-0.00188586	2.13771e-05
2	1	0	1	0	30.4077	-0.57238	-0.572794	-0.0367051	2	-0.00188695	2.10245e-05
2	1	0	1	0	30.4377	-0.569381	-0.569783	-0.0363034	2	-0.00188804	2.06851e-05
2	1	0	1	0	30.4677	-0.566382	-0.566791	-0.0359009	2	-0.00188911	2.03484e-05
2	1	0	1	0	30.4977	-0.563383	-0.563802	-0.0355202	2	-0.00189018	2.00264e-05
2	1	0	1	0	30.5277	-0.560384	-0.560796	-0.0350735	2	-0.00189123	1.96691e-05
2	1	0	1	0	30.5577	-0.557385	-0.557802	-0.0346429	2	-0.00189227	1.93239e-05
2	1	0	1	0	30.5877	-0.554386	-0.554795	-0.0342984	2	-0.00189329	1.90286e-05
2	1	0	1	0	30.6177	-0.551387	-0.551782	-0.0338249	2	-0.00189431	1.8664e-05
2	1	0	1	0	30.6477	-0.548388	-0.548802	-0.0334121	2	-0.00189531	1.83366e-05
2	1	0	1	0	30.6777	-0.54539	-0.545793	-0.0330065	2	-0.0018963	1.80147e-05
2	1	0	1	0	30.7077	-0.542391	-0.542808	-0.0326411	2	-0.00189728	1.77178e-05
2	1	0	1	0	30.7377	-0.539392	-0.539806	-0.0322347	2	-0.00189824	1.74005e-05
2	1	0	1	0	30.7677	-0.536393	-0.536798	-0.0318104	2	-0.0018992	1.70757e-05
2	1	0	1	0	30.7977	-0.533394	-0.533828	-0.0314303	2	-0.00190014	1.67784e-05
2	1	0	1	0	30.8277	-0.530395	-0.530801	-0.0309844	2	-0.00190106	1.64465e-05
2	1	0	1	0	30.8577	-0.527396	-0.527815	-0.0305829	2	-0.00190198	1.61421e-05
2	1	0	1	0	30.8877	-0.524397	-0.524801	-0.0301496	2	-0.00190289	1.58225e-05
2	1	0	1	0	30.9177	-0.521398	-0.521799	-0.0297785	2	-0.00190378	1.55384e-05
2	1	0	1	0	30.9477	-0.518399	-0.518797	-0.0293639	2	-0.00190466	1.52339e-05
2	1	0	0	0	30.9775	-0.5154	-0.515807	-0.0289461	2	-0.00190552	1.49306e-05
2	1	0	0	0	31.0075	-0.512401	-0.512811	-0.0285476	2	-0.00190637	1.46395e-05
2	1	0	0	0	31.0375	-0.509402	-0.509794	-0.0281289	2	-0.00190722	1.434e-05
2	1	0	0	0	31.0675	-0.506404	-0.506797	-0.0276698	2	-0.00190805	1.4023e-05
2	1	0	0	0	31.0975	-0.503405	-0.503812	-0.0272989	2	-0.00190887	1.37535e-05
2	1	0	0	0	31.1275	-0.500406	-0.500806	-0.0268785	2	-0.00190967	1.34609e-05
2	1	0	0	0	31.1575	-0.497407	-0.497813	-0.0264116	2	-0.00191046	1.31481e-05
2	1	0	0	0	31.1875	-0.494408	-0.494789	-0.0259956	2	-0.00191124	1.28623e-05
2	1	0	0	0	31.2175	-0.491409	-0.491804	-0.025617	2	-0.00191201	1.25986e-05
2	1	0	0	0	31.2475	-0.48841	-0.488806	-0.0251933	2	-0.00191277	1.23147e-05
2	1	0	0	0	31.2775	-0.485411	-0.485806	-0.0247606	2	-0.00191351	1.20288e-05
2	1	0	0	0	31.3075	-0.482412	-0.482799	-0.0243187	2	-0.00191424	1.1741e-05
2	1	0	0	0	31.3375	-0.479413	-0.479809	-0.023861	2	-0.00191495	1.14487e-05
2	1	0	0	0	31.3675	-0.476414	-0.476813	-0.0234614	2	-0.00191566	1.11867e-05
2	1	0	0	0	31.3975	-0.473415	-0.473815	-0.0229971	2	-0.00191635	1.08964e-05
2	1	0	0	0	31.4275	-0.470416	-0.470809	-0.0225911	2	-0.00191702	1.06361e-05
2	1	0	0	0	31.4575	-0.467417	-0.467809	-0.0221499	2	-0.00191769	1.03619e-05
2	1	0	0	0	31.4875	-0.464418	-0.464831	-0.0216779	2	-0.00191834	1.00766e-05
2	1	0	0	0	31.5174	-0.46141	-0.461812	-0.0212265	2	-0.00191897	9.80267e-06
2	1	0	1	0	31.5473	-0.458421	-0.458845	-0.0207752	2	-0.00191959	9.5326e-06
2	1	0	1	0	31.5773	-0.455422	-0.455818	-0.0203077	2	-0.0019202	9.25661e-06
2	1	0	1	0	31.6073	-0.452423	-0.452817	-0.0198788	2	-0.00192079	9.00147e-06
2	1	0	1	0	31.6373	-0.449424	-0.449829	-0.0193904	2	-0.00192138	8.72237e-06
2	1	0	1	0	31.6673	-0.446425	-0.446823	-0.0189202	2	-0.00192194	8.45397e-06
2	1	0	1	0	31.6973	-0.443426	-0.443811	-0.0184602	2	-0.0019225	8.19283e-06
2	1	0	1	0	31.7273	-0.440427	-0.440817	-0.0179961	2	-0.00192304	7.93298e-06
2	1	0	1	0	31.7573	-0.437428	-0.43783	-0.0175377	2	-0.00192356	7.67851e-06
2	1	0	1	0	31.7873	-0.434429	-0.434841	-0.0170734	2	-0.00192407	7.42421e-06
2	1	0	1	0	31.8173	-0.43143	-0.431843	-0.016618	2	-0.00192457	7.17639e-06
2	1	0	1	0	31.8473	-0.428431	-0.428831	-0.0161038	2	-0.00192506	6.90582e-06
2	1	0	1	0	31.8773	-0.425432	-0.425831	-0.0156312	2	-0.00192552	6.65626e-06
2	1	0	1	0	31.9073	-0.422433	-0.422849	-0.0151676	2	-0.00192598	6.41362e-06
2	1	0	1	0	31.9373	-0.419434	-0.419844	-0.0146726	2	-0.00192642	6.16022e-06
2	1	0	1	0	31.9673	-0.416436	-0.416833	-0.0141826	2	-0.00192685	5.91179e-06
2	1	0	1	0	31.9973	-0.413437	-0.413843	-0.013741	2	-0.00192726	5.68661e-06
2	1	0	1	0	32.0273	-0.410438	-0.410851	-0.013229	2	-0.00192765	5.43515e-06
2	1	0	1	0	32.0573	-0.407439	-0.407833	-0.012739	2	-0.00192804	5.19539e-06
2	1	0	0	0	32.0871	-0.40444	-0.40483	-0.0122787	2	-0.0019284	4.97076e-06
2	1	0	0	0	32.1171	-0.401441	-0.40184	-0.011786	2	-0.00192876	4.73608e-06
2	1	0	0	0	32.1471	-0.398442	-0.398845	-0.0113308	2	-0.0019291	4.51923e-06
2	1	0	0	0	32.1771	-0.395443	-0.395839	-0.0108277	2	-0.00192942	4.28604e-06
2	1	0	0	0	32.2071	-0.392444	-0.392833	-0.0103897	2	-0.00192973	4.08143e-06
2	1	0	0	0	32.2371	-0.389445	-0.389837	-0.00994965	2	-0.00193003	3.87874e-06
2	1	0	0	0	32.2671	-0.386446	-0.386847	-0.0094713	2	-0.00193032	3.66394e-06
2	1	0	0	0	32.2971	-0.383447	-0.38385	-0.00900945	2	-0.00193059	3.45827e-06
2	1	0	0	0	32.3271	-0.380448	-0.380833	-0.00855258	2	-0.00193084	3.2571e-06
2	1	0	0	0	32.3571	-0.37745	-0.377861	-0.00812541	2	-0.00193108	3.07028e-06
2	1	0	0	0	32.3871	-0.374451	-0.374846	-0.00762017	2	-0.00193131	2.85639e-06
2	1	0	0	0	32.4171	-0.371452	-0.371857	-0.00717652	2	-0.00193153	2.66864e-06
2	1	0	0	0	32.4471	-0.368453	-0.36885	-0.00674661	2	-0.00193173	2.48849e-06
2	1	0	0	0	32.4771	-0.365454	-0.365838	-0.00622475	2	-0.00193192	2.27725e-06
2	1	0	0	0	32.5071	-0.362455	-0.362865	-0.00580994	2	-0.00193209	2.10823e-06
2	1	0	0	0	32.5371	-0.359456	-0.359841	-0.00536193	2	-0.00193225	1.92944e-06
2	1	0	0	0	32.5671	-0.356457	-0.356845	-0.00497092	2	-0.0019324	1.77385e-06
2	1	0	0	0	32.6271	-0.350459	-0.350842	-0.0038939	2	-0.00193267	1.36615e-06
2	1	0	1	0	32.6569	-0.34746	-0.347869	-0.00344684	2	-0.00193278	1.19905e-06
2	1	0	1	0	32.6869	-0.344461	-0.344871	-0.00304659	2	-0.00193288	1.05068e-06
2	1	0	1	0	32.7169	-0.341462	-0.341865	-0.00260013	2	-0.00193296	8.88895e-07
2	1	0	1	0	32.7469	-0.338463	-0.338847	-0.00216782	2	-0.00193303	7.34558e-07
2	1	0	1	0	32.7769	-0.335465	-0.335861	-0.00176413	2	-0.00193309	5.92503e-07
2	1	0	1	0	32.8069	-0.332466	-0.332856	-0.00135438	2	-0.00193314	4.50812e-07
2	1	0	1	0	32.8369	-0.329467	-0.329859	-0.000915181	2	-0.00193317	3.01881e-07
2	1	0	1	0	32.8669	-0.326468	-0.326864	-0.000500993	2	-0.00193319	1.63757e-07
2	1	0	1	0	32.8969	-0.323469	-0.323846	-7.75008e-05	2	-0.0019332	2.50983e-08
2	1	0	1	0	32.9269	-0.32047	-0.320856	0.000338899	2	-0.0019332	1.08738e-07
2	1	0	1	0	32.9569	-0.317471	-0.317843	0.000776322	2	-0.00193318	2.46749e-07
2	1	0	1	0	32.9869	-0.314472	-0.314853	0.00118759	2	-0.00193315	3.73916e-07
2	1	0	1	0	33.0169	-0.311473	-0.31185	0.00159799	2	-0.00193311	4.98333e-07
2	1	0	1	0	33.0469	-0.308474	-0.30887	0.00203307	2	-0.00193305	6.27953e-07
2	1	0	1	0	33.0769	-0.305475	-0.305862	0.00246267	2	-0.00193299	7.53237e-07
2	1	0	1	0	33.1069	-0.302476	-0.302862	0.00290476	2	-0.00193291	8.79739e-07
2	1	0	1	0	33.1369	-0.299477	-0.299859	0.00332139	2	-0.00193281	9.95949e-07
2	1	0	1	0	33.1669	-0.296478	-0.296849	0.00377688	2	-0.00193271	1.12116e-06
2	1	0	0	0	33.1967	-0.29348	-0.293844	0.00425559	2	-0.00193259	1.25048e-06
2	1	0	0	0	33.2267	-0.290481	-0.290841	0.00470259	2	-0.00193245	1.36771e-06
2	1	0	0	0	33.2567	-0.287482	-0.28784	0.00514473	2	-0.0019323	1.48086e-06
2	1	0	0	0	33.2867	-0.284483	-0.284845	0.00562505	2	-0.00193214	1.60227e-06
2	1	0	0	0	33.3167	-0.281484	-0.281846	0.00609563	2	-0.00193196	1.71803e-06
2	1	0	0	0	33.3467	-0.278485	-0.278849	0.00656768	2	-0.00193177	1.83139e-06
2	1	0	0	0	33.3767	-0.275486	-0.275837	0.00708282	2	-0.00193157	1.95371e-06
2	1	0	0	0	33.4067	-0.272487	-0.272835	0.0075776	2	-0.00193135	2.06744e-06
2	1	0	0	0	33.4367	-0.269488	-0.26984	0.00810031	2	-0.00193111	2.18579e-06
2	1	0	0	0	33.4667	-0.266489	-0.266841	0.00862073	2	-0.00193086	2.30036e-06
2	1	0	0	0	33.4967	-0.26349	-0.263822	0.00916391	2	-0.0019306	2.41764e-06
2	1	0	0	0	33.5267	-0.260491	-0.260844	0.00967062	2	-0.00193031	2.52252e-06
2	1	0	0	0	33.5722	-0.255943	-0.256318	0.0104253	2	-0.00192985	2.67218e-06
2	1	0	1	0	33.6177	-0.251395	-0.251766	0.0111693	2	-0.00192936	2.81206e-06
2	1	0	1	0	33.6477	-0.248396	-0.248766	0.0117692	2	-0.00192901	2.92777e-06
2	1	0	1	0	33.6777	-0.245397	-0.24578	0.0123473	2	-0.00192864	3.03471e-06
2	1	0	1	0	33.7077	-0.242398	-0.242769	0.0129398	2	-0.00192826	3.14138e-06
2	1	0	1	0	33.7377	-0.239399	-0.239765	0.0135009	2	-0.00192785	3.23705e-06
2	1	0	0	0	33.7675	-0.2364	-0.236765	0.0141165	2	-0.00192743	3.3423e-06
2	1	0	0	0	33.7975	-0.233401	-0.233764	0.0146819	2	-0.001927	3.43211e-06
2	1	0	0	0	33.8275	-0.230402	-0.230787	0.0153215	2	-0.00192654	3.536e-06
2	1	0	0	0	33.8575	-0.227403	-0.227781	0.0158877	2	-0.00192606	3.61891e-06
2	1	0	0	0	33.8875	-0.224404	-0.224778	0.0165098	2	-0.00192557	3.71104e-06
2	1	0	0	0	33.9175	-0.221405	-0.221768	0.0171003	2	-0.00192506	3.7923e-06
2	1	0	0	0	33.9475	-0.218406	-0.218785	0.0177146	2	-0.00192453	3.87569e-06
2	1	0	0	0	33.9775	-0.215407	-0.215778	0.0183165	2	-0.00192398	3.95229e-06
2	1	0	0	0	34.0075	-0.212408	-0.212764	0.018928	2	-0.00192341	4.02718e-06
2	1	0	0	0	34.0375	-0.20941	-0.20979	0.0194419	2	-0.00192283	4.07871e-06
2	1	0	0	0	34.0675	-0.206411	-0.206793	0.0200761	2	-0.00192223	4.15159e-06
2	1	0	0	0	34.0975	-0.203412	-0.203788	0.0206344	2	-0.00192161	4.20505e-06
2	1	0	0	0	34.1275	-0.200413	-0.200774	0.0211597	2	-0.00192098	4.24831e-06
2	1	0	0	0	34.1575	-0.197414	-0.197788	0.0217358	2	-0.00192033	4.29908e-06
2	1	0	0	0	34.1875	-0.194415	-0.194788	0.0222769	2	-0.00191966	4.33927e-06
2	1	0	0	0	34.2175	-0.191416	-0.191788	0.0227811	2	-0.00191898	4.36915e-06
2	1	0	0	0	34.2475	-0.188417	-0.188763	0.023286	2	-0.00191828	4.39552e-06
2	1	0	0	0	34.2775	-0.185418	-0.185784	0.0237521	2	-0.00191757	4.41276e-06
2	1	0	0	0	34.3074	-0.182428	-0.182784	0.0242502	2	-0.00191684	4.43255e-06
2	1	0	1	0	34.3373	-0.17942	-0.17978	0.0246769	2	-0.0019161	4.43641e-06
2	1	0	1	0	34.3673	-0.176421	-0.176795	0.0251365	2	-0.00191535	4.44402e-06
2	1	0	1	0	34.3973	-0.173422	-0.173784	0.0254395	2	-0.00191458	4.42098e-06
2	1	0	1	0	34.4273	-0.170423	-0.170783	0.0258181	2	-0.00191381	4.40928e-06
2	1	0	1	0	34.4573	-0.167425	-0.167798	0.0261723	2	-0.00191302	4.39167e-06
2	1	0	1	0	34.4873	-0.164426	-0.164788	0.0264886	2	-0.00191222	4.365e-06
2	1	0	1	0	34.5173	-0.161427	-0.161759	0.0267318	2	-0.00191142	4.3241e-06
2	1	0	1	0	34.5473	-0.158428	-0.158793	0.026962	2	-0.0019106	4.28139e-06
2	1	0	1	0	34.5773	-0.155429	-0.155797	0.0271741	2	-0.00190978	4.23363e-06
2	1	0	1	0	34.6073	-0.15243	-0.152788	0.0273516	2	-0.00190896	4.179e-06
2	1	0	1	0	34.6373	-0.149431	-0.149788	0.0274756	2	-0.00190813	4.11551e-06
2	1	0	1	0	34.6673	-0.146432	-0.146776	0.0276324	2	-0.00190729	4.05578e-06
2	1	0	1	0	34.6973	-0.143433	-0.143779	0.0276777	2	-0.00190646	3.97946e-06
2	1	0	1	0	34.7273	-0.140434	-0.140792	0.0276976	2	-0.00190562	3.8996e-06
2	1	0	1	0	34.7573	-0.137435	-0.137795	0.0276714	2	-0.00190478	3.81297e-06
2	1	0	1	0	34.7873	-0.134436	-0.134783	0.0276069	2	-0.00190395	3.72093e-06
2	1	0	1	0	34.8173	-0.131437	-0.131796	0.0275406	2	-0.00190311	3.62974e-06
2	1	0	1	0	34.8473	-0.128439	-0.128791	0.0273952	2	-0.00190228	3.52827e-06
2	1	0	0	0	34.8771	-0.12544	-0.12581	0.0272661	2	-0.00190146	3.43034e-06
2	1	0	0	0	34.9071	-0.122441	-0.122806	0.0270663	2	-0.00190064	3.32389e-06
2	1	0	0	0	34.9371	-0.119442	-0.119801	0.0268293	2	-0.00189982	3.21418e-06
2	1	0	0	0	34.9671	-0.116443	-0.116794	0.0266136	2	-0.00189901	3.10832e-06
2	1	0	0	0	34.9971	-0.113444	-0.113795	0.0264101	2	-0.00189821	3.00535e-06
2	1	0	0	0	35.0271	-0.110445	-0.110792	0.0260868	2	-0.00189742	2.89021e-06
2	1	0	0	0	35.0571	-0.107446	-0.107813	0.0257795	2	-0.00189663	2.77935e-06
2	1	0	0	0	35.0871	-0.104447	-0.104785	0.0254515	2	-0.00189585	2.66693e-06
2	1	0	0	0	35.1171	-0.101448	-0.101805	0.0250743	2	-0.00189509	2.55269e-06
2	1	0	0	0	35.1471	-0.0984492	-0.0987867	0.0247805	2	-0.00189433	2.44798e-06
2	1	0	0	0	35.1771	-0.0954503	-0.0958139	0.0244325	2	-0.00189359	2.34098e-06
2	1	0	0	0	35.2071	-0.0924513	-0.0928099	0.0240289	2	-0.00189285	2.23012e-06
2	1	0	0	0	35.2371	-0.0894524	-0.089815	0.0236655	2	-0.00189213	2.12552e-06
2	1	0	0	0	35.2671	-0.0864535	-0.086818	0.0233221	2	-0.00189142	2.02477e-06
2	1	0	0	0	35.2971	-0.0834546	-0.0838064	0.0229616	2	-0.00189072	1.92433e-06
2	1	0	0	0	35.3271	-0.0804556	-0.0808142	0.022561	2	-0.00189003	1.82325e-06
2	1	0	0	0	35.3571	-0.0774567	-0.077807	0.022194	2	-0.00188935	1.72685e-06
2	1	0	0	0	35.3871	-0.0744578	-0.0748344	0.0218066	2	-0.00188868	1.63188e-06
2	1	0	0	0	35.4171	-0.0714589	-0.0718128	0.0214548	2	-0.00188803	1.54073e-06
2	1	0	1	0	35.4469	-0.0684599	-0.0688296	0.0210936	2	-0.00188739	1.45186e-06
2	1	0	1	0	35.4769	-0.065461	-0.0658254	0.020731	2	-0.00188675	1.36462e-06
2	1	0	1	0	35.5069	-0.0624621	-0.0628252	0.0204054	2	-0.00188613	1.28197e-06
2	1	0	1	0	35.5369	-0.0594631	-0.0598229	0.0200168	2	-0.00188551	1.19746e-06
2	1	0	1	0	35.5669	-0.0564642	-0.0568104	0.0197053	2	-0.00188491	1.11947e-06
2	1	0	1	0	35.5969	-0.0534653	-0.0538293	0.0194268	2	-0.00188432	1.04573e-06
2	1	0	1	0	35.6269	-0.0504664	-0.0508418	0.0190944	2	-0.00188373	9.70795e-07
2	1	0	1	0	35.6569	-0.0474674	-0.0478315	0.0188086	2	-0.00188316	8.99641e-07
2	1	0	1	0	35.6869	-0.0444685	-0.0448275	0.0185222	2	-0.00188259	8.30305e-07
2	1	0	1	0	35.7169	-0.0414696	-0.0418466	0.0182443	2	-0.00188203	7.6346e-07
2	1	0	1	0	35.7469	-0.0384706	-0.0388375	0.0179846	2	-0.00188148	6.98476e-07
2	1	0	1	0	35.7769	-0.0354717	-0.0358318	0.0177544	2	-0.00188093	6.3617e-07
2	1	0	1	0	35.8069	-0.0324728	-0.0328386	0.0175633	2	-0.0018804	5.76755e-07
2	1	0	1	0	35.8369	-0.0294739	-0.0298409	0.0173538	2	-0.00187987	5.17853e-07
2	1	0	1	0	35.8669	-0.0264749	-0.0268157	0.0171336	2	-0.00187934	4.5945e-07
2	1	0	1	0	35.8969	-0.023476	-0.0238418	0.0169521	2	-0.00187883	4.04169e-07
2	1	0	1	0	35.9269	-0.0204771	-0.0208355	0.0167572	2	-0.00187831	3.49145e-07
2	1	0	1	0	35.9569	-0.0174781	-0.0178404	0.0165709	2	-0.0018778	2.95631e-07
2	1	0	1	0	35.9868	-0.0144883	-0.0148555	0.0164676	2	-0.0018773	2.44634e-07
2	1	0	0	0	35.9932	-0.0138294	-0.0142124	0.0165027	2	-0.0018772	2.34543e-07