File: TAP_Report/Data/Res_growth/blank_1_2.mpt
EC-Lab ASCII FILE
Nb header lines : 54

Cyclic Voltammetry

Run on channel : 1 (SN 0696)
User :
Electrode connection : standard
Ewe ctrl range : min = -2.50 V, max = 2.50 V
Ewe,I filtering : 50 kHz
Channel : Grounded
Acquisition started on : 01/18/2017 14:17:27
Saved on :
	File : blank_1.mpr
	Directory : H:\EC-Lab\Data\Resazurin Bulk 18-1-17\
	Host : 144.32.136.43
Device : SP-300 (SN 0182)
Address : USB
EC-Lab for windows v10.44 (software)
Internet server v10.44 (firmware)
Command interpretor v10.44 (firmware)
Electrode material :
Initial state :
Electrolyte :
Comments :
Cable : standard
Reference electrode : SCE Saturated Calomel Electrode (0.241 V)
Electrode surface area : 0.001 cm²
Characteristic mass : 0.001 g
Equivalent Weight : 0.000 g/eq.
Density : 0.000 g/cm3
Ei (V)              0.000
vs.                 Eoc
dE/dt               100.000
dE/dt unit          mV/s
E1 (V)              0.000
vs.                 Ref
Step percent        50
N                   10
E range min (V)     -2.500
E range max (V)     2.500
I Range             Auto
I Range min         Unset
I Range max         Unset
I Range init        Unset
Bandwidth           8
E2 (V)              -0.900
vs.                 Ref
nc cycles           2
Reverse Scan        1
Ef (V)              0.000
vs.                 Eoc

mode	ox/red	error	control changes	counter inc.	time/s	control/V	Ewe/V	<I>/mA	cycle number	(Q-Qo)/C	P/W
2	1	0	0	1	17.9966	-0.0158287	-0.0165896	0.0157712	2	-0.000973923	2.61638e-07
2	1	0	1	1	18.0221	-0.0132796	-0.0140589	0.0156459	2	-0.000973515	2.19964e-07
2	1	0	1	1	18.0521	-0.0102807	-0.0110233	0.0155445	2	-0.000973038	1.71351e-07
2	1	0	1	1	18.0821	-0.00728179	-0.0080301	0.0154247	2	-0.000972564	1.23861e-07
2	1	0	1	1	18.1121	-0.00428286	-0.00503522	0.0153388	2	-0.000972094	7.72344e-08
2	1	0	1	1	18.1421	-0.00128393	-0.0020503	0.0152463	2	-0.000971626	3.12595e-08
2	0	0	0	1	18.1607	-0.000584183	-0.0013792	0.0132281	2	-0.000971351	1.82442e-08
2	0	0	0	1	18.1907	-0.00358311	-0.0044044	0.0111132	2	-0.000971001	4.89471e-08
2	0	0	0	1	18.2207	-0.00658204	-0.00738189	0.00998409	2	-0.000970694	7.37015e-08
2	0	0	0	1	18.2507	-0.00958097	-0.0103789	0.00907023	2	-0.000970418	9.4139e-08
2	0	0	0	1	18.2807	-0.0125799	-0.013392	0.00831726	2	-0.000970166	1.11385e-07
2	0	0	0	1	18.3107	-0.0155788	-0.0163816	0.00770834	2	-0.000969935	1.26275e-07
2	0	0	1	1	18.3405	-0.0185778	-0.0193829	0.0070889	2	-0.000969724	1.37403e-07
2	0	0	1	1	18.3705	-0.0215767	-0.02239	0.00655823	2	-0.000969528	1.46839e-07
2	0	0	1	1	18.4005	-0.0245756	-0.0253794	0.00609073	2	-0.000969347	1.54579e-07
2	0	0	1	1	18.4305	-0.0275745	-0.028373	0.00561485	2	-0.000969181	1.5931e-07
2	0	0	1	1	18.4605	-0.0305735	-0.0313779	0.00521786	2	-0.000969027	1.63725e-07
2	0	0	0	1	18.5215	-0.0366713	-0.037494	0.00414484	2	-0.000968745	1.55406e-07
2	0	0	0	1	18.5515	-0.0396702	-0.040466	0.00381953	2	-0.000968626	1.54561e-07
2	0	0	0	1	18.5815	-0.0426691	-0.0434763	0.00348969	2	-0.000968516	1.51719e-07
2	0	0	0	1	18.6115	-0.0456681	-0.0464746	0.00318776	2	-0.000968416	1.4815e-07
2	0	0	0	1	18.6415	-0.048667	-0.0494784	0.0029054	2	-0.000968325	1.43755e-07
2	0	0	0	1	18.6715	-0.0516659	-0.0524663	0.00263545	2	-0.000968243	1.38272e-07
2	0	0	0	1	18.7015	-0.0546649	-0.0554682	0.00237344	2	-0.000968168	1.31651e-07
2	0	0	0	1	18.7315	-0.0576638	-0.0584531	0.00212741	2	-0.000968101	1.24354e-07
2	0	0	0	1	18.7615	-0.0606627	-0.0614709	0.00186833	2	-0.000968042	1.14848e-07
2	0	0	0	1	18.7915	-0.0636616	-0.0644796	0.00163653	2	-0.000967989	1.05523e-07
2	0	0	0	1	18.8215	-0.0666606	-0.067481	0.00142011	2	-0.000967944	9.58303e-08
2	0	0	0	1	18.8515	-0.0696595	-0.0704689	0.00120786	2	-0.000967904	8.51166e-08
2	0	0	1	1	18.8813	-0.0726584	-0.0734772	0.00096542	2	-0.000967872	7.09363e-08
2	0	0	1	1	18.9113	-0.0756574	-0.0764508	0.000797812	2	-0.000967846	6.09934e-08
2	0	0	1	1	18.9413	-0.0786563	-0.0794553	0.000598128	2	-0.000967825	4.75244e-08
2	0	0	1	1	18.9713	-0.0816552	-0.0824643	0.000405175	2	-0.00096781	3.34125e-08
2	0	0	1	1	19.0013	-0.0846541	-0.0854567	0.000214578	2	-0.000967801	1.83371e-08
2	0	0	1	1	19.0313	-0.0876531	-0.0884633	3.32941e-05	2	-0.000967798	2.94531e-09
2	0	0	1	1	19.0613	-0.090652	-0.0914655	-0.000156508	2	-0.0009678	1.4315e-08
2	0	0	1	1	19.0913	-0.0936509	-0.094456	-0.000330689	2	-0.000967808	3.12356e-08
2	0	0	1	1	19.1213	-0.0966498	-0.0974543	-0.000509942	2	-0.000967821	4.9696e-08
2	0	0	1	1	19.1513	-0.0996488	-0.100454	-0.000685639	2	-0.000967839	6.88754e-08
2	0	0	1	1	19.1813	-0.102648	-0.103469	-0.000853998	2	-0.000967863	8.83624e-08
2	0	0	1	1	19.2113	-0.105647	-0.106474	-0.0010332	2	-0.000967891	1.10009e-07
2	0	0	1	1	19.2413	-0.108646	-0.109469	-0.00121077	2	-0.000967925	1.32542e-07
2	0	0	1	1	19.2713	-0.111644	-0.11246	-0.00138711	2	-0.000967965	1.55994e-07
2	0	0	1	1	19.3013	-0.114643	-0.115488	-0.00156449	2	-0.00096801	1.80679e-07
2	0	0	1	1	19.3313	-0.117642	-0.118482	-0.00174257	2	-0.00096806	2.06464e-07
2	0	0	1	1	19.3613	-0.120641	-0.121468	-0.00192957	2	-0.000968115	2.34381e-07
2	0	0	1	1	19.3913	-0.12364	-0.124464	-0.00210387	2	-0.000968176	2.61855e-07
2	0	0	1	1	19.4213	-0.126639	-0.127463	-0.00229107	2	-0.000968242	2.92026e-07
2	0	0	0	1	19.4511	-0.129638	-0.130466	-0.00250152	2	-0.000968314	3.26364e-07
2	0	0	0	1	19.4811	-0.132637	-0.133442	-0.00267798	2	-0.000968391	3.57355e-07
2	0	0	0	1	19.5111	-0.135636	-0.13644	-0.00287715	2	-0.000968475	3.92557e-07
2	0	0	0	1	19.5411	-0.138635	-0.139442	-0.0030873	2	-0.000968565	4.30498e-07
2	0	0	0	1	19.5711	-0.141634	-0.14246	-0.00329468	2	-0.00096866	4.69361e-07
2	0	0	0	1	19.6011	-0.144633	-0.145455	-0.0035067	2	-0.000968763	5.10066e-07
2	0	0	0	1	19.6311	-0.147632	-0.148458	-0.00371472	2	-0.000968871	5.5148e-07
2	0	0	0	1	19.6611	-0.150631	-0.151462	-0.00396889	2	-0.000968987	6.01136e-07
2	0	0	0	1	19.6911	-0.153629	-0.154464	-0.00419557	2	-0.00096911	6.48064e-07
2	0	0	0	1	19.7211	-0.156628	-0.157454	-0.00445135	2	-0.000969239	7.00881e-07
2	0	0	0	1	19.7511	-0.159627	-0.160454	-0.00469539	2	-0.000969377	7.53394e-07
2	0	0	0	1	19.7811	-0.162626	-0.163446	-0.00495933	2	-0.000969522	8.10581e-07
2	0	0	0	1	19.8111	-0.165625	-0.166461	-0.00524564	2	-0.000969675	8.73196e-07
2	0	0	0	1	19.8411	-0.168624	-0.16946	-0.00554529	2	-0.000969837	9.39706e-07
2	0	0	0	1	19.8711	-0.171623	-0.172449	-0.00582991	2	-0.000970008	1.00537e-06
2	0	0	0	1	19.9011	-0.174622	-0.175454	-0.00614216	2	-0.000970188	1.07767e-06
2	0	0	0	1	19.9311	-0.177621	-0.178457	-0.0064672	2	-0.000970378	1.15412e-06
2	0	0	0	1	19.9611	-0.18062	-0.181448	-0.00682937	2	-0.000970577	1.23918e-06
2	0	0	0	1	19.9911	-0.183619	-0.184466	-0.00718505	2	-0.000970787	1.3254e-06
2	0	0	1	1	20.0209	-0.186618	-0.187464	-0.00755393	2	-0.000971007	1.41609e-06
2	0	0	1	1	20.0509	-0.189617	-0.190467	-0.00794663	2	-0.00097124	1.51357e-06
2	0	0	1	1	20.0809	-0.192616	-0.193479	-0.00835018	2	-0.000971485	1.61558e-06
2	0	0	1	1	20.1109	-0.195614	-0.19647	-0.00876634	2	-0.000971742	1.72232e-06
2	0	0	1	1	20.1409	-0.198613	-0.19946	-0.00920274	2	-0.000972012	1.83558e-06
2	0	0	1	1	20.1709	-0.201612	-0.202461	-0.00966874	2	-0.000972296	1.95754e-06
2	0	0	1	1	20.2009	-0.204611	-0.20549	-0.0101639	2	-0.000972594	2.08858e-06
2	0	0	0	1	20.2619	-0.210709	-0.211549	-0.0108626	2	-0.000973237	2.29796e-06
2	0	0	0	1	20.2919	-0.213708	-0.214532	-0.0114	2	-0.000973581	2.44566e-06
2	0	0	0	1	20.3219	-0.216707	-0.217547	-0.0119618	2	-0.00097394	2.60225e-06
2	0	0	0	1	20.3519	-0.219706	-0.220563	-0.012547	2	-0.000974317	2.76739e-06
2	0	0	0	1	20.3819	-0.222705	-0.223556	-0.0131105	2	-0.000974711	2.93092e-06
2	0	0	0	1	20.4119	-0.225704	-0.226535	-0.0136802	2	-0.000975122	3.09904e-06
2	0	0	0	1	20.4419	-0.228703	-0.229543	-0.0142682	2	-0.000975551	3.27517e-06
2	0	0	0	1	20.4719	-0.231702	-0.232529	-0.014921	2	-0.000975998	3.46956e-06
2	0	0	0	1	20.5019	-0.234701	-0.235532	-0.0155619	2	-0.000976464	3.66534e-06
2	0	0	0	1	20.5319	-0.237699	-0.238526	-0.0161828	2	-0.000976948	3.86001e-06
2	0	0	1	1	20.5617	-0.240698	-0.241531	-0.0168203	2	-0.000977449	4.06262e-06
2	0	0	1	1	20.5917	-0.243697	-0.244531	-0.0174594	2	-0.000977972	4.26938e-06
2	0	0	1	1	20.6217	-0.246696	-0.247532	-0.0180989	2	-0.000978514	4.48006e-06
2	0	0	1	1	20.6517	-0.249695	-0.250524	-0.0187217	2	-0.000979076	4.69023e-06
2	0	0	1	1	20.6817	-0.252694	-0.25353	-0.0193683	2	-0.000979657	4.91046e-06
2	0	0	1	1	20.7117	-0.255693	-0.256533	-0.0200295	2	-0.000980257	5.13823e-06
2	0	0	1	1	20.7417	-0.258692	-0.259537	-0.0206488	2	-0.000980877	5.35914e-06
2	0	0	1	1	20.7717	-0.261691	-0.262532	-0.02132	2	-0.000981515	5.59718e-06
2	0	0	1	1	20.8017	-0.26469	-0.265523	-0.0219517	2	-0.000982173	5.82867e-06
2	0	0	1	1	20.8317	-0.267689	-0.26852	-0.0226022	2	-0.000982851	6.06916e-06
2	0	0	1	1	20.8617	-0.270688	-0.271522	-0.0232491	2	-0.000983548	6.31264e-06
2	0	0	1	1	20.8917	-0.273687	-0.274526	-0.0238914	2	-0.000984264	6.5588e-06
2	0	0	1	1	20.9217	-0.276686	-0.277527	-0.0245188	2	-0.000985	6.80461e-06
2	0	0	1	1	20.9517	-0.279684	-0.280527	-0.0251592	2	-0.000985754	7.05783e-06
2	0	0	1	1	20.9817	-0.282683	-0.283519	-0.0258226	2	-0.000986528	7.32121e-06
2	0	0	1	1	21.0117	-0.285682	-0.28651	-0.0264531	2	-0.000987321	7.57907e-06
2	0	0	1	1	21.0417	-0.288681	-0.289497	-0.0270781	2	-0.000988132	7.83902e-06
2	0	0	1	1	21.0717	-0.29168	-0.292519	-0.0277043	2	-0.000988963	8.10404e-06
2	0	0	1	1	21.1017	-0.294679	-0.295509	-0.0283612	2	-0.000989814	8.38099e-06
2	0	0	0	1	21.1315	-0.297678	-0.298501	-0.0290128	2	-0.000990678	8.66035e-06
2	0	0	0	1	21.1615	-0.300677	-0.301509	-0.0296607	2	-0.000991566	8.94296e-06
2	0	0	0	1	21.1915	-0.303676	-0.304501	-0.0302802	2	-0.000992474	9.22034e-06
2	0	0	0	1	21.2215	-0.306675	-0.307516	-0.0309109	2	-0.000993401	9.50559e-06
2	0	0	0	1	21.2515	-0.309674	-0.310518	-0.0315804	2	-0.000994347	9.8063e-06
2	0	0	0	1	21.2815	-0.312673	-0.31353	-0.0322078	2	-0.000995313	1.00981e-05
2	0	0	0	1	21.3115	-0.315672	-0.316496	-0.0328226	2	-0.000996297	1.03882e-05
2	0	0	0	1	21.3415	-0.318671	-0.319512	-0.0334904	2	-0.000997301	1.07006e-05
2	0	0	0	1	21.3715	-0.321669	-0.322522	-0.034144	2	-0.000998325	1.10122e-05
2	0	0	0	1	21.4015	-0.324668	-0.325509	-0.0347891	2	-0.000999369	1.13241e-05
2	0	0	0	1	21.4315	-0.327667	-0.328502	-0.0354925	2	-0.00100043	1.16593e-05
2	0	0	0	1	21.4615	-0.330666	-0.331507	-0.036171	2	-0.00100152	1.19909e-05
2	0	0	0	1	21.4915	-0.333665	-0.334499	-0.0368054	2	-0.00100262	1.23114e-05
2	0	0	0	1	21.5215	-0.336664	-0.3375	-0.0374781	2	-0.00100374	1.26488e-05
2	0	0	0	1	21.5515	-0.339663	-0.340484	-0.0381103	2	-0.00100489	1.2976e-05
2	0	0	0	1	21.5815	-0.342662	-0.343496	-0.0388606	2	-0.00100605	1.33485e-05
2	0	0	0	1	21.6115	-0.345661	-0.3465	-0.0395294	2	-0.00100723	1.36969e-05
2	0	0	0	1	21.6415	-0.34866	-0.349505	-0.040227	2	-0.00100844	1.40596e-05
2	0	0	0	1	21.6714	-0.351652	-0.352492	-0.0409385	2	-0.00100966	1.44305e-05
2	0	0	1	1	21.7013	-0.354658	-0.355497	-0.0416335	2	-0.0010109	1.48006e-05
2	0	0	1	1	21.7313	-0.357657	-0.358483	-0.0423153	2	-0.00101217	1.51693e-05
2	0	0	1	1	21.7613	-0.360655	-0.361487	-0.0430344	2	-0.00101346	1.55563e-05
2	0	0	1	1	21.7913	-0.363654	-0.364501	-0.043755	2	-0.00101477	1.59488e-05
2	0	0	1	1	21.8213	-0.366653	-0.367485	-0.0444768	2	-0.00101611	1.63445e-05
2	0	0	1	1	21.8513	-0.369652	-0.370501	-0.0452367	2	-0.00101746	1.67602e-05
2	0	0	1	1	21.8813	-0.372651	-0.373472	-0.0459367	2	-0.00101884	1.71561e-05
2	0	0	1	1	21.9113	-0.37565	-0.376496	-0.0466809	2	-0.00102024	1.75752e-05
2	0	0	1	1	21.9413	-0.378649	-0.379494	-0.0473862	2	-0.00102166	1.79828e-05
2	0	0	1	1	21.9713	-0.381648	-0.382487	-0.0481499	2	-0.0010231	1.84167e-05
2	0	0	1	1	22.0013	-0.384647	-0.385474	-0.0488243	2	-0.00102456	1.88205e-05
2	0	0	1	1	22.0313	-0.387646	-0.388484	-0.0495778	2	-0.00102605	1.92602e-05
2	0	0	1	1	22.0613	-0.390645	-0.391479	-0.0503183	2	-0.00102756	1.96986e-05
2	0	0	1	1	22.0913	-0.393644	-0.394492	-0.0510281	2	-0.00102909	2.01302e-05
2	0	0	1	1	22.1213	-0.396643	-0.397491	-0.0518007	2	-0.00103064	2.05903e-05
2	0	0	1	1	22.1513	-0.399642	-0.400477	-0.052493	2	-0.00103221	2.10223e-05
2	0	0	1	1	22.1813	-0.40264	-0.403488	-0.0532584	2	-0.00103381	2.14891e-05
2	0	0	1	1	22.2113	-0.405639	-0.406479	-0.0539487	2	-0.00103543	2.1929e-05
2	0	0	0	1	22.2411	-0.408638	-0.4095	-0.0546985	2	-0.00103705	2.2399e-05
2	0	0	0	1	22.2711	-0.411637	-0.412486	-0.0554151	2	-0.00103871	2.28579e-05
2	0	0	0	1	22.3011	-0.414636	-0.415494	-0.0560694	2	-0.0010404	2.32965e-05
2	0	0	0	1	22.3311	-0.417635	-0.418495	-0.0567657	2	-0.0010421	2.37561e-05
2	0	0	0	1	22.3611	-0.420634	-0.421488	-0.057471	2	-0.00104382	2.42233e-05
2	0	0	0	1	22.3911	-0.423633	-0.424482	-0.0581084	2	-0.00104556	2.4666e-05
2	0	0	0	1	22.4211	-0.426632	-0.427486	-0.0587394	2	-0.00104733	2.51103e-05
2	0	0	0	1	22.4511	-0.429631	-0.430483	-0.0594222	2	-0.00104911	2.55802e-05
2	0	0	0	1	22.4811	-0.43263	-0.433493	-0.0600591	2	-0.00105091	2.60352e-05
2	0	0	0	1	22.5111	-0.435629	-0.436464	-0.0606232	2	-0.00105273	2.64599e-05
2	0	0	0	1	22.5411	-0.438628	-0.439476	-0.0612168	2	-0.00105456	2.69033e-05
2	0	0	0	1	22.5711	-0.441627	-0.442476	-0.0618108	2	-0.00105642	2.73498e-05
2	0	0	0	1	22.6011	-0.444625	-0.445457	-0.0623698	2	-0.00105829	2.77831e-05
2	0	0	0	1	22.6311	-0.447624	-0.448474	-0.0629196	2	-0.00106018	2.82178e-05
2	0	0	0	1	22.6611	-0.450623	-0.451459	-0.0634567	2	-0.00106208	2.86481e-05
2	0	0	0	1	22.6911	-0.453622	-0.45446	-0.0639797	2	-0.001064	2.90762e-05
2	0	0	0	1	22.7211	-0.456621	-0.457456	-0.0644825	2	-0.00106594	2.94979e-05
2	0	0	0	1	22.7511	-0.45962	-0.460461	-0.0649312	2	-0.00106789	2.98983e-05
2	0	0	0	1	22.7811	-0.462619	-0.463473	-0.0654628	2	-0.00106986	3.03403e-05
2	0	0	1	1	22.8109	-0.465618	-0.46648	-0.0658671	2	-0.00107182	3.07257e-05
2	0	0	1	1	22.8409	-0.468617	-0.469457	-0.0663401	2	-0.00107381	3.11438e-05
2	0	0	1	1	22.8709	-0.471616	-0.472452	-0.066756	2	-0.00107582	3.1539e-05
2	0	0	1	1	22.9009	-0.474615	-0.475462	-0.0671616	2	-0.00107784	3.19328e-05
2	0	0	1	1	22.9309	-0.477614	-0.478466	-0.0675717	2	-0.00107987	3.23307e-05
2	0	0	1	1	22.9609	-0.480613	-0.481451	-0.0679189	2	-0.00108191	3.26996e-05
2	0	0	1	1	22.9909	-0.483612	-0.484464	-0.0683541	2	-0.00108396	3.31151e-05
2	0	0	1	1	23.0209	-0.48661	-0.487451	-0.0686835	2	-0.00108602	3.34799e-05
2	0	0	1	1	23.0509	-0.489609	-0.490448	-0.069011	2	-0.0010881	3.38463e-05
2	0	0	1	1	23.0809	-0.492608	-0.493453	-0.0693202	2	-0.00109018	3.42063e-05
2	0	0	1	1	23.1109	-0.495607	-0.496443	-0.0697014	2	-0.00109228	3.46027e-05
2	0	0	1	1	23.1409	-0.498606	-0.499451	-0.0700136	2	-0.00109438	3.49684e-05
2	0	0	1	1	23.1709	-0.501605	-0.502454	-0.0703206	2	-0.0010965	3.53329e-05
2	0	0	1	1	23.2009	-0.504604	-0.505446	-0.0706339	2	-0.00109862	3.57016e-05
2	0	0	1	1	23.2309	-0.507603	-0.508451	-0.0709579	2	-0.00110075	3.60786e-05
2	0	0	1	1	23.2609	-0.510602	-0.511457	-0.0712568	2	-0.00110289	3.64448e-05
2	0	0	1	1	23.2909	-0.513601	-0.514459	-0.0715133	2	-0.00110504	3.67907e-05
2	0	0	1	1	23.3209	-0.5166	-0.517455	-0.071778	2	-0.0011072	3.71419e-05
2	0	0	1	1	23.3508	-0.519592	-0.520425	-0.0720537	2	-0.00110936	3.74985e-05
2	0	0	0	1	23.3807	-0.522598	-0.523441	-0.0723249	2	-0.00111153	3.78578e-05
2	0	0	0	1	23.4107	-0.525597	-0.526446	-0.0726084	2	-0.00111371	3.82244e-05
2	0	0	0	1	23.4407	-0.528596	-0.52946	-0.0728803	2	-0.0011159	3.85872e-05
2	0	0	0	1	23.4707	-0.531594	-0.532433	-0.0730649	2	-0.0011181	3.89022e-05
2	0	0	0	1	23.5007	-0.534593	-0.535447	-0.0733692	2	-0.0011203	3.92853e-05
2	0	0	0	1	23.5307	-0.537592	-0.53843	-0.0735928	2	-0.00112252	3.96246e-05
2	0	0	0	1	23.5607	-0.540591	-0.54144	-0.0738288	2	-0.00112474	3.99739e-05
2	0	0	0	1	23.5907	-0.54359	-0.544437	-0.0740865	2	-0.00112697	4.03354e-05
2	0	0	0	1	23.6207	-0.546589	-0.547435	-0.074305	2	-0.0011292	4.06771e-05
2	0	0	0	1	23.6507	-0.549588	-0.550453	-0.0745824	2	-0.00113144	4.10541e-05
2	0	0	0	1	23.6807	-0.552587	-0.553447	-0.0747465	2	-0.00113369	4.13682e-05
2	0	0	0	1	23.7107	-0.555586	-0.556441	-0.0749818	2	-0.00113595	4.17229e-05
2	0	0	0	1	23.7407	-0.558585	-0.559439	-0.0752441	2	-0.00113821	4.20945e-05
2	0	0	0	1	23.7707	-0.561584	-0.562438	-0.075454	2	-0.00114048	4.24382e-05
2	0	0	0	1	23.8007	-0.564583	-0.565438	-0.0756708	2	-0.00114275	4.27871e-05
2	0	0	0	1	23.8307	-0.567582	-0.56845	-0.0758867	2	-0.00114504	4.31378e-05
2	0	0	0	1	23.8607	-0.570581	-0.571438	-0.0761179	2	-0.00114733	4.34966e-05
2	0	0	0	1	23.8907	-0.573579	-0.57442	-0.0763426	2	-0.00114962	4.38527e-05
2	0	0	1	1	23.9205	-0.576578	-0.577432	-0.0765229	2	-0.00115191	4.41868e-05
2	0	0	1	1	23.9505	-0.579577	-0.580427	-0.0767472	2	-0.00115422	4.45462e-05
2	0	0	1	1	23.9805	-0.582576	-0.58344	-0.0769954	2	-0.00115653	4.49222e-05
2	0	0	1	1	24.0105	-0.585575	-0.58644	-0.0772043	2	-0.00115885	4.52757e-05
2	0	0	1	1	24.0405	-0.588574	-0.589424	-0.0774042	2	-0.00116118	4.56239e-05
2	0	0	1	1	24.0705	-0.591573	-0.59241	-0.0776015	2	-0.00116351	4.59719e-05
2	0	0	1	1	24.1005	-0.594572	-0.595423	-0.0778041	2	-0.00116586	4.63264e-05
2	0	0	1	1	24.1305	-0.597571	-0.59841	-0.078075	2	-0.0011682	4.67209e-05
2	0	0	1	1	24.1605	-0.60057	-0.601414	-0.0782663	2	-0.00117056	4.70705e-05
2	0	0	1	1	24.1905	-0.603569	-0.60441	-0.0784854	2	-0.00117292	4.74373e-05
2	0	0	1	1	24.2205	-0.606568	-0.607423	-0.0787092	2	-0.00117528	4.78098e-05
2	0	0	1	1	24.2505	-0.609567	-0.610412	-0.0789255	2	-0.00117765	4.81771e-05
2	0	0	1	1	24.2805	-0.612566	-0.613413	-0.0791663	2	-0.00118003	4.85617e-05
2	0	0	1	1	24.3105	-0.615564	-0.616416	-0.0793268	2	-0.00118242	4.88983e-05
2	0	0	1	1	24.3405	-0.618563	-0.619425	-0.0795801	2	-0.00118481	4.92939e-05
2	0	0	1	1	24.3705	-0.621562	-0.622415	-0.0797959	2	-0.00118721	4.96662e-05
2	0	0	1	1	24.4005	-0.624561	-0.625417	-0.0800098	2	-0.00118962	5.00394e-05
2	0	0	1	1	24.4305	-0.62756	-0.628406	-0.0802839	2	-0.00119203	5.04509e-05
2	0	0	1	1	24.4605	-0.630559	-0.631401	-0.080475	2	-0.00119445	5.0812e-05
2	0	0	0	1	24.4903	-0.633558	-0.634407	-0.0807565	2	-0.00119686	5.12324e-05
2	0	0	0	1	24.5203	-0.636557	-0.637421	-0.0809321	2	-0.0011993	5.15878e-05
2	0	0	0	1	24.5503	-0.639556	-0.640405	-0.0811735	2	-0.00120174	5.19839e-05
2	0	0	0	1	24.5803	-0.642555	-0.643409	-0.0814506	2	-0.00120419	5.24061e-05
2	0	0	0	1	24.6103	-0.645554	-0.646399	-0.0817159	2	-0.00120664	5.2821e-05
2	0	0	0	1	24.6403	-0.648553	-0.649393	-0.0819415	2	-0.0012091	5.32123e-05
2	0	0	0	1	24.6703	-0.651552	-0.652403	-0.0822266	2	-0.00121157	5.36449e-05
2	0	0	0	1	24.7003	-0.654551	-0.655415	-0.0824984	2	-0.00121405	5.40707e-05
2	0	0	0	1	24.7303	-0.657549	-0.658393	-0.0827046	2	-0.00121654	5.44521e-05
2	0	0	0	1	24.7603	-0.660548	-0.661409	-0.0829809	2	-0.00121903	5.48843e-05
2	0	0	0	1	24.7903	-0.663547	-0.664398	-0.0832631	2	-0.00122154	5.53198e-05
2	0	0	0	1	24.8203	-0.666546	-0.667393	-0.0835198	2	-0.00122405	5.57405e-05
2	0	0	0	1	24.8503	-0.669545	-0.670388	-0.0838116	2	-0.00122657	5.61863e-05
2	0	0	0	1	24.8803	-0.672544	-0.67339	-0.0840912	2	-0.00122909	5.66262e-05
2	0	0	0	1	24.9103	-0.675543	-0.676394	-0.0844226	2	-0.00123163	5.7103e-05
2	0	0	0	1	24.9403	-0.678542	-0.67942	-0.0847395	2	-0.00123418	5.75737e-05
2	0	0	0	1	24.9703	-0.681541	-0.682395	-0.0850563	2	-0.00123673	5.8042e-05
2	0	0	0	1	25.0003	-0.68454	-0.685398	-0.0853531	2	-0.0012393	5.85008e-05
2	0	0	0	1	25.0302	-0.687534	-0.688404	-0.0856937	2	-0.00124186	5.89919e-05
2	0	0	1	1	25.0601	-0.690538	-0.691403	-0.0860373	2	-0.00124444	5.94864e-05
2	0	0	1	1	25.0901	-0.693537	-0.694381	-0.0863395	2	-0.00124703	5.99525e-05
2	0	0	1	1	25.1201	-0.696536	-0.697388	-0.0867289	2	-0.00124964	6.04837e-05
2	0	0	1	1	25.1501	-0.699534	-0.70039	-0.087046	2	-0.00125225	6.09662e-05
2	0	0	1	1	25.1801	-0.702533	-0.703397	-0.0874382	2	-0.00125488	6.15038e-05
2	0	0	1	1	25.2101	-0.705532	-0.706384	-0.0878242	2	-0.00125752	6.20376e-05
2	0	0	1	1	25.2401	-0.708531	-0.709392	-0.08824	2	-0.00126017	6.25968e-05
2	0	0	1	1	25.2701	-0.71153	-0.712376	-0.0886821	2	-0.00126283	6.3175e-05
2	0	0	1	1	25.3001	-0.714529	-0.715386	-0.0890725	2	-0.0012655	6.37211e-05
2	0	0	1	1	25.3301	-0.717528	-0.718379	-0.0895106	2	-0.00126819	6.43025e-05
2	0	0	1	1	25.3601	-0.720527	-0.72139	-0.0899621	2	-0.00127089	6.48977e-05
2	0	0	1	1	25.3901	-0.723526	-0.724383	-0.0904445	2	-0.00127361	6.55165e-05
2	0	0	1	1	25.4201	-0.726525	-0.727374	-0.0908479	2	-0.00127633	6.60804e-05
2	0	0	1	1	25.4501	-0.729524	-0.730391	-0.0913719	2	-0.00127908	6.67372e-05
2	0	0	1	1	25.4801	-0.732523	-0.733386	-0.0919251	2	-0.00128184	6.74165e-05
2	0	0	1	1	25.5101	-0.735522	-0.73638	-0.0924715	2	-0.00128461	6.80942e-05
2	0	0	1	1	25.5401	-0.738521	-0.73939	-0.0929864	2	-0.0012874	6.87532e-05
2	0	0	1	1	25.5701	-0.741519	-0.742386	-0.0935982	2	-0.00129021	6.94859e-05
2	0	0	0	1	25.5999	-0.744518	-0.745381	-0.0942142	2	-0.00129302	7.02254e-05
2	0	0	0	1	25.6299	-0.747517	-0.748372	-0.0948282	2	-0.00129586	7.09668e-05
2	0	0	0	1	25.6599	-0.750516	-0.751376	-0.0954307	2	-0.00129872	7.17044e-05
2	0	0	0	1	25.6899	-0.753515	-0.754388	-0.0961164	2	-0.0013016	7.2509e-05
2	0	0	0	1	25.7199	-0.756514	-0.757398	-0.0968527	2	-0.00130451	7.33561e-05
2	0	0	0	1	25.7499	-0.759513	-0.760379	-0.0975814	2	-0.00130743	7.41988e-05
2	0	0	0	1	25.7799	-0.762512	-0.763379	-0.0982957	2	-0.00131038	7.50369e-05
2	0	0	0	1	25.8099	-0.765511	-0.766378	-0.0991131	2	-0.00131335	7.59581e-05
2	0	0	0	1	25.8399	-0.76851	-0.769374	-0.0998785	2	-0.00131634	7.68439e-05
2	0	0	0	1	25.8699	-0.771509	-0.772364	-0.100757	2	-0.00131936	7.78208e-05
2	0	0	0	1	25.8999	-0.774508	-0.775359	-0.10162	2	-0.0013224	7.87918e-05
2	0	0	0	1	25.9454	-0.779056	-0.779909	-0.102822	2	-0.00132707	8.01916e-05
2	0	0	1	1	25.9909	-0.783604	-0.784447	-0.104144	2	-0.00133179	8.16955e-05
2	0	0	1	1	26.0209	-0.786603	-0.787425	-0.105189	2	-0.00133494	8.28283e-05
2	0	0	1	1	26.0509	-0.789602	-0.790431	-0.106291	2	-0.00133813	8.40157e-05
2	0	0	1	1	26.0809	-0.792601	-0.793435	-0.107479	2	-0.00134135	8.52776e-05
2	0	0	1	1	26.1109	-0.7956	-0.796434	-0.108666	2	-0.00134461	8.65452e-05
2	0	0	1	1	26.1409	-0.798599	-0.799435	-0.109943	2	-0.00134791	8.78926e-05
2	0	0	0	1	26.1707	-0.801598	-0.802426	-0.111183	2	-0.00135122	8.92165e-05
2	0	0	0	1	26.2007	-0.804597	-0.805429	-0.112622	2	-0.00135459	9.07089e-05
2	0	0	0	1	26.2307	-0.807596	-0.808423	-0.113975	2	-0.00135801	9.21397e-05
2	0	0	0	1	26.2607	-0.810595	-0.811417	-0.115501	2	-0.00136146	9.37193e-05
2	0	0	0	1	26.2907	-0.813594	-0.814408	-0.117096	2	-0.00136497	9.53635e-05
2	0	0	0	1	26.3207	-0.816593	-0.817427	-0.118591	2	-0.00136852	9.69399e-05
2	0	0	0	1	26.3507	-0.819592	-0.820423	-0.12036	2	-0.00137212	9.8746e-05
2	0	0	0	1	26.3807	-0.82259	-0.823423	-0.122046	2	-0.00137577	0.000100496
2	0	0	0	1	26.4107	-0.825589	-0.826423	-0.123832	2	-0.00137947	0.000102337
2	0	0	0	1	26.4407	-0.828588	-0.829418	-0.125735	2	-0.00138323	0.000104287
2	0	0	0	1	26.4707	-0.831587	-0.832418	-0.127612	2	-0.00138705	0.000106226
2	0	0	0	1	26.5007	-0.834586	-0.83542	-0.129737	2	-0.00139093	0.000108385
2	0	0	0	1	26.5307	-0.837585	-0.838398	-0.13183	2	-0.00139487	0.000110526
2	0	0	0	1	26.5607	-0.840584	-0.841408	-0.133996	2	-0.00139887	0.000112746
2	0	0	0	1	26.5907	-0.843583	-0.844401	-0.136353	2	-0.00140294	0.000115137
2	0	0	0	1	26.6207	-0.846582	-0.847407	-0.138701	2	-0.00140708	0.000117536
2	0	0	0	1	26.6507	-0.849581	-0.850395	-0.141188	2	-0.0014113	0.000120066
2	0	0	0	1	26.6807	-0.85258	-0.853398	-0.143784	2	-0.00141559	0.000122705
2	0	0	0	1	26.7106	-0.855574	-0.856406	-0.146386	2	-0.00141994	0.000125366
2	0	0	1	1	26.7405	-0.858578	-0.859412	-0.149195	2	-0.00142438	0.00012822
2	0	0	1	1	26.7705	-0.861576	-0.862409	-0.152077	2	-0.00142891	0.000131153
2	0	0	1	1	26.8005	-0.864575	-0.865391	-0.154995	2	-0.00143353	0.000134131
2	0	0	1	1	26.8305	-0.867574	-0.868413	-0.158098	2	-0.00143825	0.000137294
2	0	0	1	1	26.8605	-0.870573	-0.871405	-0.161335	2	-0.00144306	0.000140588
2	0	0	1	1	26.8905	-0.873572	-0.874425	-0.164696	2	-0.00144796	0.000144015
2	0	0	1	1	26.9205	-0.876571	-0.877378	-0.168063	2	-0.00145297	0.000147455
2	0	0	1	1	26.9505	-0.87957	-0.880392	-0.171711	2	-0.00145809	0.000151173
2	0	0	1	1	26.9805	-0.882569	-0.883399	-0.175452	2	-0.00146331	0.000154994
2	0	0	1	1	27.0105	-0.885568	-0.886399	-0.179359	2	-0.00146865	0.000158983
2	0	0	1	1	27.0405	-0.888567	-0.889393	-0.183432	2	-0.00147411	0.000163143
2	0	0	1	1	27.0705	-0.891566	-0.892401	-0.18752	2	-0.00147969	0.000167343
2	0	0	1	1	27.1005	-0.894565	-0.895396	-0.191812	2	-0.00148539	0.000171747
2	0	0	1	1	27.1305	-0.897564	-0.898381	-0.196308	2	-0.00149123	0.00017636
2	1	0	0	0	27.1554	-0.900013	-0.900857	-0.200122	2	-0.00149618	0.000180282
2	1	0	1	0	27.1809	-0.897464	-0.898279	-0.192014	2	-0.00150114	0.000172483
2	1	0	1	0	27.2109	-0.894465	-0.895298	-0.185645	2	-0.00150679	0.000166207
2	1	0	1	0	27.2409	-0.891466	-0.892282	-0.179944	2	-0.00151226	0.000160561
2	1	0	1	0	27.2709	-0.888467	-0.889296	-0.174674	2	-0.00151756	0.000155337
2	1	0	1	0	27.3009	-0.885468	-0.886303	-0.169629	2	-0.0015227	0.000150343
2	1	0	1	0	27.3309	-0.882469	-0.883309	-0.164853	2	-0.0015277	0.000145616
2	1	0	1	0	27.3609	-0.87947	-0.880302	-0.160203	2	-0.00153256	0.000141027
2	1	0	1	0	27.3909	-0.876471	-0.877284	-0.155753	2	-0.00153728	0.00013664
2	1	0	1	0	27.4209	-0.873472	-0.874297	-0.151474	2	-0.00154187	0.000132433
2	1	0	1	0	27.4509	-0.870473	-0.871295	-0.147409	2	-0.00154634	0.000128437
2	1	0	1	0	27.4809	-0.867474	-0.868298	-0.14341	2	-0.00155068	0.000124523
2	1	0	1	0	27.5109	-0.864475	-0.865305	-0.139661	2	-0.00155491	0.000120849
2	1	0	1	0	27.5409	-0.861476	-0.862321	-0.136034	2	-0.00155903	0.000117305
2	1	0	1	0	27.5709	-0.858478	-0.859308	-0.13245	2	-0.00156304	0.000113815
2	1	0	1	0	27.6008	-0.85547	-0.856295	-0.128992	2	-0.00156693	0.000110455
2	1	0	0	0	27.6307	-0.85248	-0.853291	-0.125715	2	-0.00157073	0.000107272
2	1	0	0	0	27.6607	-0.849481	-0.850318	-0.122589	2	-0.00157443	0.00010424
2	1	0	0	0	27.6907	-0.846482	-0.847308	-0.119552	2	-0.00157805	0.000101298
2	1	0	0	0	27.7207	-0.843483	-0.844297	-0.116624	2	-0.00158158	9.84653e-05
2	1	0	0	0	27.7507	-0.840484	-0.841299	-0.11369	2	-0.00158501	9.56473e-05
2	1	0	0	0	27.7807	-0.837485	-0.83831	-0.111064	2	-0.00158837	9.31062e-05
2	1	0	0	0	27.8107	-0.834486	-0.83532	-0.108351	2	-0.00159164	9.05078e-05
2	1	0	0	0	27.8407	-0.831487	-0.832312	-0.105806	2	-0.00159484	8.80639e-05
2	1	0	0	0	27.8707	-0.828488	-0.829309	-0.103345	2	-0.00159796	8.57047e-05
2	1	0	0	0	27.9007	-0.825489	-0.826301	-0.100886	2	-0.00160101	8.33618e-05
2	1	0	0	0	27.9307	-0.82249	-0.823323	-0.0986484	2	-0.00160398	8.12194e-05
2	1	0	0	0	27.9607	-0.819492	-0.820318	-0.0964212	2	-0.00160689	7.90961e-05
2	1	0	0	0	27.9907	-0.816493	-0.817326	-0.0942989	2	-0.00160974	7.70729e-05
2	1	0	0	0	28.0207	-0.813494	-0.814312	-0.0921641	2	-0.00161252	7.50503e-05
2	1	0	0	0	28.0507	-0.810495	-0.811333	-0.0902803	2	-0.00161524	7.32474e-05
2	1	0	0	0	28.0807	-0.807496	-0.808325	-0.0883508	2	-0.0016179	7.14162e-05
2	1	0	0	0	28.1107	-0.804497	-0.805299	-0.0864567	2	-0.0016205	6.96235e-05
2	1	0	0	0	28.1407	-0.801498	-0.802307	-0.0846205	2	-0.00162305	6.78916e-05
2	1	0	1	0	28.1705	-0.798499	-0.799299	-0.082938	2	-0.00162553	6.62923e-05
2	1	0	1	0	28.2005	-0.7955	-0.796315	-0.0811889	2	-0.00162798	6.46519e-05
2	1	0	1	0	28.2305	-0.792501	-0.793308	-0.0796116	2	-0.00163037	6.31565e-05
2	1	0	1	0	28.2605	-0.789502	-0.790319	-0.0780496	2	-0.00163272	6.16841e-05
2	1	0	1	0	28.2905	-0.786503	-0.787319	-0.0765323	2	-0.00163502	6.02553e-05
2	1	0	1	0	28.3205	-0.783504	-0.784327	-0.0750837	2	-0.00163728	5.88902e-05
2	1	0	1	0	28.3505	-0.780505	-0.781331	-0.0736746	2	-0.0016395	5.75642e-05
2	1	0	1	0	28.3805	-0.777507	-0.778317	-0.0723753	2	-0.00164167	5.63309e-05
2	1	0	1	0	28.4105	-0.774508	-0.775325	-0.0710375	2	-0.0016438	5.50772e-05
2	1	0	1	0	28.4405	-0.771509	-0.772311	-0.0698144	2	-0.0016459	5.39184e-05
2	1	0	1	0	28.4705	-0.76851	-0.769321	-0.0685885	2	-0.00164796	5.27665e-05
2	1	0	1	0	28.5005	-0.765511	-0.766324	-0.0673963	2	-0.00164998	5.16474e-05
2	1	0	1	0	28.5305	-0.762512	-0.763315	-0.0662996	2	-0.00165197	5.06075e-05
2	1	0	1	0	28.5605	-0.759513	-0.760334	-0.065193	2	-0.00165393	4.95684e-05
2	1	0	1	0	28.5905	-0.756514	-0.757332	-0.0641282	2	-0.00165585	4.85664e-05
2	1	0	1	0	28.6205	-0.753515	-0.754332	-0.0631483	2	-0.00165774	4.76348e-05
2	1	0	1	0	28.6505	-0.750516	-0.751333	-0.0621598	2	-0.00165961	4.67027e-05
2	1	0	1	0	28.6805	-0.747517	-0.748319	-0.0612178	2	-0.00166144	4.58104e-05
2	1	0	1	0	28.7105	-0.744518	-0.745342	-0.0603079	2	-0.00166325	4.495e-05
2	1	0	0	0	28.7403	-0.741519	-0.742324	-0.0593804	2	-0.00166501	4.40795e-05
2	1	0	0	0	28.7703	-0.738521	-0.739336	-0.0585556	2	-0.00166677	4.32922e-05
2	1	0	0	0	28.8003	-0.735522	-0.736323	-0.0577082	2	-0.0016685	4.24919e-05
2	1	0	0	0	28.8303	-0.732523	-0.73334	-0.0569377	2	-0.0016702	4.17547e-05
2	1	0	0	0	28.8603	-0.729524	-0.730341	-0.0561522	2	-0.00167188	4.10103e-05
2	1	0	0	0	28.8903	-0.726525	-0.727329	-0.0554797	2	-0.00167354	4.0352e-05
2	1	0	0	0	28.9203	-0.723526	-0.724344	-0.0547355	2	-0.00167518	3.96473e-05
2	1	0	0	0	28.9503	-0.720527	-0.721355	-0.0540565	2	-0.00167679	3.89939e-05
2	1	0	0	0	28.9803	-0.717528	-0.718337	-0.0533871	2	-0.00167839	3.83499e-05
2	1	0	0	0	29.0103	-0.714529	-0.715355	-0.052737	2	-0.00167996	3.77257e-05
2	1	0	0	0	29.0403	-0.71153	-0.712356	-0.0521709	2	-0.00168152	3.71642e-05
2	1	0	0	0	29.0703	-0.708531	-0.709347	-0.0515147	2	-0.00168306	3.65418e-05
2	1	0	0	0	29.1003	-0.705532	-0.706353	-0.0509031	2	-0.00168458	3.59556e-05
2	1	0	0	0	29.1303	-0.702533	-0.70336	-0.050374	2	-0.00168608	3.54311e-05
2	1	0	0	0	29.1603	-0.699534	-0.700347	-0.0498043	2	-0.00168757	3.48803e-05
2	1	0	0	0	29.1903	-0.696536	-0.69733	-0.0492148	2	-0.00168904	3.4319e-05
2	1	0	0	0	29.2203	-0.693537	-0.694344	-0.0487284	2	-0.00169049	3.38343e-05
2	1	0	0	0	29.2503	-0.690538	-0.691332	-0.0482738	2	-0.00169193	3.33733e-05
2	1	0	0	0	29.3111	-0.68444	-0.685251	-0.0472464	2	-0.00169478	3.23756e-05
2	1	0	0	0	29.3411	-0.681441	-0.682247	-0.0467766	2	-0.00169618	3.19132e-05
2	1	0	0	0	29.3711	-0.678442	-0.679241	-0.0463146	2	-0.00169757	3.14587e-05
2	1	0	0	0	29.4011	-0.675443	-0.676237	-0.0458465	2	-0.00169894	3.10031e-05
2	1	0	0	0	29.4311	-0.672444	-0.673245	-0.0454642	2	-0.0017003	3.06085e-05
2	1	0	0	0	29.4611	-0.669445	-0.670236	-0.0450277	2	-0.00170165	3.01792e-05
2	1	0	0	0	29.4911	-0.666446	-0.667255	-0.0445916	2	-0.00170298	2.97539e-05
2	1	0	0	0	29.5211	-0.663447	-0.664257	-0.0441649	2	-0.00170431	2.93368e-05
2	1	0	0	0	29.5511	-0.660448	-0.661266	-0.0437887	2	-0.00170562	2.8956e-05
2	1	0	0	0	29.5811	-0.657449	-0.658235	-0.043387	2	-0.00170692	2.85588e-05
2	1	0	0	0	29.6111	-0.654451	-0.655258	-0.0430298	2	-0.00170821	2.81956e-05
2	1	0	0	0	29.6411	-0.651452	-0.652262	-0.042659	2	-0.00170948	2.78248e-05
2	1	0	0	0	29.6711	-0.648453	-0.649244	-0.0422846	2	-0.00171075	2.7453e-05
2	1	0	0	0	29.7011	-0.645454	-0.646245	-0.0419092	2	-0.001712	2.70836e-05
2	1	0	0	0	29.7311	-0.642455	-0.64325	-0.041578	2	-0.00171325	2.67451e-05
2	1	0	0	0	29.7611	-0.639456	-0.640254	-0.0411706	2	-0.00171448	2.63596e-05
2	1	0	0	0	29.7911	-0.636457	-0.637249	-0.0408116	2	-0.0017157	2.60071e-05
2	1	0	0	0	29.8211	-0.633458	-0.634263	-0.0405123	2	-0.00171691	2.56955e-05
2	1	0	1	0	29.8509	-0.630459	-0.631271	-0.0401765	2	-0.00171811	2.53623e-05
2	1	0	1	0	29.8809	-0.62746	-0.628267	-0.0398228	2	-0.0017193	2.50194e-05
2	1	0	1	0	29.9109	-0.624461	-0.625263	-0.0395191	2	-0.00172048	2.47098e-05
2	1	0	1	0	29.9409	-0.621462	-0.622263	-0.0391535	2	-0.00172165	2.43638e-05
2	1	0	1	0	29.9709	-0.618463	-0.619262	-0.0388266	2	-0.00172281	2.40439e-05
2	1	0	1	0	30.0009	-0.615464	-0.616256	-0.0384598	2	-0.00172396	2.37011e-05
2	1	0	1	0	30.0309	-0.612465	-0.613268	-0.0381458	2	-0.0017251	2.33936e-05
2	1	0	1	0	30.0609	-0.609467	-0.610256	-0.0378159	2	-0.00172623	2.30774e-05
2	1	0	1	0	30.0909	-0.606468	-0.607271	-0.0375155	2	-0.00172736	2.2782e-05
2	1	0	1	0	30.1209	-0.603469	-0.60428	-0.0371741	2	-0.00172847	2.24635e-05
2	1	0	1	0	30.1509	-0.60047	-0.601278	-0.0368577	2	-0.00172957	2.21617e-05
2	1	0	1	0	30.1809	-0.597471	-0.598267	-0.0365458	2	-0.00173066	2.18641e-05
2	1	0	1	0	30.2109	-0.594472	-0.595264	-0.0361922	2	-0.00173174	2.15439e-05
2	1	0	1	0	30.2409	-0.591473	-0.592275	-0.0358853	2	-0.00173281	2.12539e-05
2	1	0	1	0	30.2709	-0.588474	-0.589272	-0.0355126	2	-0.00173388	2.09266e-05
2	1	0	1	0	30.3009	-0.585475	-0.586286	-0.035216	2	-0.00173493	2.06466e-05
2	1	0	1	0	30.3309	-0.582476	-0.583276	-0.0348763	2	-0.00173597	2.03425e-05
2	1	0	1	0	30.3609	-0.579477	-0.58028	-0.0345411	2	-0.00173701	2.00435e-05
2	1	0	1	0	30.3909	-0.576478	-0.577268	-0.0342617	2	-0.00173803	1.97782e-05
2	1	0	0	0	30.4207	-0.573479	-0.574269	-0.0338745	2	-0.00173904	1.94531e-05
2	1	0	0	0	30.4507	-0.570481	-0.571271	-0.0335743	2	-0.00174004	1.918e-05
2	1	0	0	0	30.4807	-0.567482	-0.56827	-0.0332389	2	-0.00174103	1.88886e-05
2	1	0	0	0	30.5107	-0.564483	-0.565278	-0.0329494	2	-0.00174202	1.86256e-05
2	1	0	0	0	30.5407	-0.561484	-0.562294	-0.0326136	2	-0.00174299	1.83384e-05
2	1	0	0	0	30.5707	-0.558485	-0.559285	-0.0322724	2	-0.00174396	1.80495e-05
2	1	0	0	0	30.6007	-0.555486	-0.556286	-0.0319536	2	-0.00174491	1.77754e-05
2	1	0	0	0	30.6307	-0.552487	-0.553288	-0.0316357	2	-0.00174586	1.75036e-05
2	1	0	0	0	30.6607	-0.549488	-0.550282	-0.0312203	2	-0.00174679	1.718e-05
2	1	0	0	0	30.6907	-0.546489	-0.547274	-0.0309083	2	-0.00174771	1.69153e-05
2	1	0	0	0	30.7207	-0.54349	-0.544276	-0.0306309	2	-0.00174863	1.66716e-05
2	1	0	0	0	30.7507	-0.540491	-0.541279	-0.0302279	2	-0.00174953	1.63617e-05
2	1	0	0	0	30.7807	-0.537492	-0.538277	-0.0299114	2	-0.00175043	1.61006e-05
2	1	0	0	0	30.8107	-0.534493	-0.535284	-0.0295712	2	-0.00175131	1.5829e-05
2	1	0	0	0	30.8407	-0.531494	-0.532287	-0.0292581	2	-0.00175218	1.55737e-05
2	1	0	0	0	30.8707	-0.528496	-0.529282	-0.028876	2	-0.00175305	1.52836e-05
2	1	0	0	0	30.9007	-0.525497	-0.526286	-0.0285558	2	-0.0017539	1.50285e-05
2	1	0	0	0	30.9307	-0.522498	-0.523289	-0.0281699	2	-0.00175474	1.4741e-05
2	1	0	1	0	30.9605	-0.519499	-0.520293	-0.0278424	2	-0.00175557	1.44862e-05
2	1	0	1	0	30.9905	-0.5165	-0.517293	-0.0275378	2	-0.00175639	1.42451e-05
2	1	0	1	0	31.0205	-0.513501	-0.514291	-0.027149	2	-0.0017572	1.39625e-05
2	1	0	1	0	31.0505	-0.510502	-0.511281	-0.0267764	2	-0.001758	1.36903e-05
2	1	0	1	0	31.0805	-0.507503	-0.508289	-0.0264216	2	-0.00175879	1.34298e-05
2	1	0	1	0	31.1105	-0.504504	-0.505286	-0.026092	2	-0.00175957	1.31839e-05
2	1	0	1	0	31.1405	-0.501505	-0.502299	-0.0257337	2	-0.00176034	1.2926e-05
2	1	0	1	0	31.1705	-0.498506	-0.499289	-0.0253677	2	-0.0017611	1.26658e-05
2	1	0	1	0	31.2005	-0.495507	-0.496279	-0.0249828	2	-0.00176185	1.23985e-05
2	1	0	1	0	31.2305	-0.492508	-0.493281	-0.0246327	2	-0.00176258	1.21508e-05
2	1	0	1	0	31.2605	-0.489509	-0.490287	-0.0242362	2	-0.00176331	1.18827e-05
2	1	0	1	0	31.2905	-0.486511	-0.487295	-0.0238704	2	-0.00176402	1.16319e-05
2	1	0	1	0	31.3205	-0.483512	-0.484296	-0.0234713	2	-0.00176472	1.13671e-05
2	1	0	1	0	31.3505	-0.480513	-0.481282	-0.0231224	2	-0.00176541	1.11284e-05
2	1	0	1	0	31.3805	-0.477514	-0.478314	-0.0227251	2	-0.00176609	1.08697e-05
2	1	0	1	0	31.4105	-0.474515	-0.475292	-0.0223425	2	-0.00176676	1.06192e-05
2	1	0	1	0	31.4405	-0.471516	-0.472294	-0.0219477	2	-0.00176741	1.03658e-05
2	1	0	1	0	31.4705	-0.468517	-0.469288	-0.021549	2	-0.00176806	1.01127e-05
2	1	0	1	0	31.5005	-0.465518	-0.466298	-0.0211746	2	-0.00176869	9.87366e-06
2	1	0	0	0	31.5303	-0.462519	-0.463311	-0.0207232	2	-0.00176931	9.60128e-06
2	1	0	0	0	31.5603	-0.45952	-0.460312	-0.0203203	2	-0.00176991	9.35371e-06
2	1	0	0	0	31.5903	-0.456521	-0.457293	-0.0199505	2	-0.00177051	9.12324e-06
2	1	0	0	0	31.6203	-0.453522	-0.454295	-0.0194937	2	-0.00177109	8.8559e-06
2	1	0	0	0	31.6503	-0.450523	-0.451302	-0.0191098	2	-0.00177166	8.62431e-06
2	1	0	0	0	31.6803	-0.447524	-0.448307	-0.0186592	2	-0.00177222	8.36504e-06
2	1	0	0	0	31.7103	-0.444526	-0.445293	-0.0182544	2	-0.00177276	8.12857e-06
2	1	0	0	0	31.7403	-0.441527	-0.442299	-0.017817	2	-0.0017733	7.88043e-06
2	1	0	0	0	31.7703	-0.438528	-0.439319	-0.0173875	2	-0.00177381	7.63866e-06
2	1	0	0	0	31.8003	-0.435529	-0.4363	-0.0169081	2	-0.00177432	7.37699e-06
2	1	0	0	0	31.8303	-0.43253	-0.433315	-0.0165417	2	-0.00177481	7.16778e-06
2	1	0	0	0	31.8603	-0.429531	-0.430313	-0.0160448	2	-0.00177529	6.90427e-06
2	1	0	0	0	31.8903	-0.426532	-0.427319	-0.0155742	2	-0.00177576	6.65516e-06
2	1	0	0	0	31.9203	-0.423533	-0.424325	-0.015158	2	-0.00177621	6.43191e-06
2	1	0	0	0	31.9503	-0.420534	-0.421319	-0.0147152	2	-0.00177665	6.19979e-06
2	1	0	0	0	31.9803	-0.417535	-0.418314	-0.0142635	2	-0.00177708	5.9666e-06
2	1	0	0	0	32.0103	-0.414536	-0.41532	-0.0138309	2	-0.00177749	5.74426e-06
2	1	0	0	0	32.0403	-0.411537	-0.412322	-0.0133647	2	-0.00177789	5.51054e-06
2	1	0	0	0	32.0703	-0.408538	-0.409333	-0.0129449	2	-0.00177828	5.29879e-06
2	1	0	1	0	32.1001	-0.405539	-0.406314	-0.0124554	2	-0.00177864	5.0608e-06
2	1	0	1	0	32.1301	-0.402541	-0.403317	-0.0119973	2	-0.001779	4.83873e-06
2	1	0	1	0	32.1601	-0.399542	-0.400307	-0.011555	2	-0.00177935	4.62555e-06
2	1	0	1	0	32.1901	-0.396543	-0.397327	-0.0111287	2	-0.00177968	4.42172e-06
2	1	0	1	0	32.2201	-0.393544	-0.394313	-0.0106839	2	-0.00178	4.21279e-06
2	1	0	1	0	32.2501	-0.390545	-0.391314	-0.0101863	2	-0.0017803	3.98604e-06
2	1	0	1	0	32.2801	-0.387546	-0.388303	-0.00977121	2	-0.00178059	3.79419e-06
2	1	0	1	0	32.3101	-0.384547	-0.385317	-0.0093072	2	-0.00178087	3.58622e-06
2	1	0	1	0	32.3401	-0.381548	-0.382311	-0.00891022	2	-0.00178113	3.40648e-06
2	1	0	1	0	32.3701	-0.378549	-0.379313	-0.00847285	2	-0.00178138	3.21386e-06
2	1	0	1	0	32.4001	-0.37555	-0.376304	-0.00802593	2	-0.00178162	3.02019e-06
2	1	0	1	0	32.4301	-0.372551	-0.373311	-0.00758764	2	-0.00178185	2.83254e-06
2	1	0	1	0	32.4601	-0.369552	-0.370317	-0.00714475	2	-0.00178206	2.64582e-06
2	1	0	1	0	32.4901	-0.366553	-0.36731	-0.00668872	2	-0.00178226	2.45683e-06
2	1	0	1	0	32.5201	-0.363554	-0.364313	-0.0062485	2	-0.00178244	2.27641e-06
2	1	0	1	0	32.5501	-0.360556	-0.361316	-0.00584229	2	-0.00178262	2.11091e-06
2	1	0	1	0	32.5801	-0.357557	-0.358319	-0.00541954	2	-0.00178278	1.94192e-06
2	1	0	1	0	32.6101	-0.354558	-0.355313	-0.00502144	2	-0.00178292	1.78418e-06
2	1	0	0	0	32.6399	-0.351559	-0.352322	-0.00452151	2	-0.00178306	1.59303e-06
2	1	0	0	0	32.6699	-0.34856	-0.349327	-0.00413507	2	-0.00178318	1.44449e-06
2	1	0	0	0	32.7154	-0.344011	-0.344769	-0.00338336	2	-0.00178334	1.16648e-06
2	1	0	1	0	32.7609	-0.339463	-0.340215	-0.00262335	2	-0.00178348	8.92504e-07
2	1	0	1	0	32.7909	-0.336464	-0.33721	-0.00218929	2	-0.00178356	7.38251e-07
2	1	0	1	0	32.8209	-0.333465	-0.334217	-0.00178478	2	-0.00178362	5.96506e-07
2	1	0	1	0	32.8509	-0.330466	-0.33122	-0.00136286	2	-0.00178366	4.51407e-07
2	1	0	1	0	32.8809	-0.327467	-0.328228	-0.000945717	2	-0.0017837	3.1041e-07
2	1	0	1	0	32.9109	-0.324468	-0.325229	-0.000543642	2	-0.00178372	1.76808e-07
2	1	0	1	0	32.9409	-0.32147	-0.322211	-0.000106784	2	-0.00178373	3.4407e-08
2	1	0	1	0	32.9709	-0.318471	-0.319212	0.00030909	2	-0.00178373	9.86653e-08
2	1	0	1	0	33.0009	-0.315472	-0.316214	0.000744696	2	-0.00178371	2.35483e-07
2	1	0	1	0	33.0309	-0.312473	-0.313221	0.00116125	2	-0.00178368	3.63729e-07
2	1	0	1	0	33.0609	-0.309474	-0.310233	0.00158496	2	-0.00178364	4.91708e-07
2	1	0	1	0	33.0909	-0.306475	-0.307218	0.00205271	2	-0.00178358	6.30629e-07
2	1	0	1	0	33.1209	-0.303476	-0.304215	0.00249045	2	-0.00178352	7.57633e-07
2	1	0	1	0	33.1509	-0.300477	-0.301214	0.00293658	2	-0.00178343	8.8454e-07
2	1	0	1	0	33.1809	-0.297478	-0.298211	0.00339836	2	-0.00178334	1.01343e-06
2	1	0	0	0	33.2107	-0.294479	-0.295204	0.00386648	2	-0.00178323	1.1414e-06
2	1	0	0	0	33.2407	-0.29148	-0.292202	0.00433427	2	-0.00178311	1.26648e-06
2	1	0	0	0	33.2707	-0.288481	-0.2892	0.00481302	2	-0.00178297	1.39193e-06
2	1	0	0	0	33.3007	-0.285482	-0.286219	0.00532284	2	-0.00178281	1.5235e-06
2	1	0	0	0	33.3307	-0.282483	-0.283206	0.0058361	2	-0.00178265	1.65281e-06
2	1	0	0	0	33.3607	-0.279485	-0.280204	0.00634799	2	-0.00178246	1.77873e-06
2	1	0	0	0	33.3907	-0.276486	-0.277227	0.00686371	2	-0.00178227	1.9028e-06
2	1	0	0	0	33.4207	-0.273487	-0.274214	0.00739411	2	-0.00178205	2.02757e-06
2	1	0	0	0	33.4507	-0.270488	-0.271236	0.00795542	2	-0.00178182	2.1578e-06
2	1	0	0	0	33.4807	-0.267489	-0.268203	0.00852151	2	-0.00178157	2.28549e-06
2	1	0	0	0	33.5107	-0.26449	-0.26519	0.00908902	2	-0.00178131	2.41031e-06
2	1	0	0	0	33.5407	-0.261491	-0.262202	0.00968114	2	-0.00178103	2.53841e-06
2	1	0	0	0	33.5862	-0.256943	-0.257686	0.0104668	2	-0.00178057	2.69713e-06
2	1	0	1	0	33.6317	-0.252394	-0.253153	0.0112368	2	-0.00178007	2.84462e-06
2	1	0	1	0	33.6617	-0.249395	-0.250154	0.0119158	2	-0.00177971	2.9808e-06
2	1	0	1	0	33.6917	-0.246396	-0.247161	0.012541	2	-0.00177934	3.09965e-06
2	1	0	1	0	33.7217	-0.243397	-0.244161	0.0131756	2	-0.00177894	3.21697e-06
2	1	0	1	0	33.7516	-0.240403	-0.241181	0.0138801	2	-0.00177853	3.34761e-06
2	1	0	0	0	33.7815	-0.2374	-0.23816	0.0145464	2	-0.0017781	3.46436e-06
2	1	0	0	0	33.8115	-0.234401	-0.235147	0.0152452	2	-0.00177764	3.58487e-06
2	1	0	0	0	33.8415	-0.231402	-0.232162	0.0159379	2	-0.00177716	3.70018e-06
2	1	0	0	0	33.8715	-0.228403	-0.229156	0.0166002	2	-0.00177667	3.80403e-06
2	1	0	0	0	33.9015	-0.225404	-0.226161	0.0172749	2	-0.00177615	3.90691e-06
2	1	0	0	0	33.9315	-0.222405	-0.223166	0.0179558	2	-0.00177561	4.00713e-06
2	1	0	0	0	33.9615	-0.219406	-0.220168	0.018604	2	-0.00177506	4.09601e-06
2	1	0	0	0	33.9915	-0.216407	-0.217154	0.0192754	2	-0.00177448	4.18573e-06
2	1	0	0	0	34.0215	-0.213408	-0.214144	0.0199482	2	-0.00177388	4.27179e-06
2	1	0	0	0	34.0515	-0.210409	-0.211155	0.0206084	2	-0.00177326	4.35158e-06
2	1	0	0	0	34.0815	-0.20741	-0.208163	0.0212387	2	-0.00177262	4.4211e-06
2	1	0	0	0	34.1115	-0.204411	-0.205164	0.021877	2	-0.00177197	4.48838e-06
2	1	0	0	0	34.1415	-0.201412	-0.202156	0.0225022	2	-0.00177129	4.54895e-06
2	1	0	0	0	34.1715	-0.198413	-0.19916	0.0230695	2	-0.0017706	4.59453e-06
2	1	0	0	0	34.2015	-0.195415	-0.196167	0.0236136	2	-0.00176989	4.63219e-06
2	1	0	0	0	34.2315	-0.192416	-0.19316	0.0242109	2	-0.00176916	4.67656e-06
2	1	0	0	0	34.2615	-0.189417	-0.190137	0.0247852	2	-0.00176842	4.7126e-06
2	1	0	0	0	34.2915	-0.186418	-0.187132	0.0253071	2	-0.00176766	4.73577e-06
2	1	0	1	0	34.3213	-0.183419	-0.184143	0.0257424	2	-0.00176689	4.74028e-06
2	1	0	1	0	34.3513	-0.18042	-0.181149	0.0262314	2	-0.0017661	4.75178e-06
2	1	0	1	0	34.3813	-0.177421	-0.178153	0.026645	2	-0.0017653	4.74688e-06
2	1	0	1	0	34.4113	-0.174422	-0.175164	0.0270606	2	-0.00176449	4.74004e-06
2	1	0	1	0	34.4413	-0.171423	-0.172166	0.0274351	2	-0.00176366	4.7234e-06
2	1	0	1	0	34.4713	-0.168424	-0.169175	0.0277885	2	-0.00176282	4.70112e-06
2	1	0	1	0	34.5013	-0.165425	-0.166162	0.0281422	2	-0.00176197	4.67617e-06
2	1	0	1	0	34.5313	-0.162426	-0.163175	0.0283715	2	-0.00176112	4.62952e-06
2	1	0	1	0	34.5613	-0.159427	-0.160174	0.028669	2	-0.00176025	4.59202e-06
2	1	0	1	0	34.5913	-0.156428	-0.157167	0.028914	2	-0.00175938	4.54433e-06
2	1	0	1	0	34.6213	-0.15343	-0.154166	0.0290732	2	-0.0017585	4.48211e-06
2	1	0	1	0	34.6513	-0.150431	-0.15117	0.0292702	2	-0.00175761	4.42478e-06
2	1	0	1	0	34.6813	-0.147432	-0.148171	0.0293776	2	-0.00175673	4.3529e-06
2	1	0	1	0	34.7113	-0.144433	-0.145174	0.029496	2	-0.00175583	4.28204e-06
2	1	0	1	0	34.7413	-0.141434	-0.142185	0.0295086	2	-0.00175494	4.19567e-06
2	1	0	1	0	34.7713	-0.138435	-0.139158	0.0295624	2	-0.00175405	4.11385e-06
2	1	0	1	0	34.8013	-0.135436	-0.136159	0.0295418	2	-0.00175315	4.02238e-06
2	1	0	1	0	34.8313	-0.132437	-0.133175	0.0294596	2	-0.00175226	3.92327e-06
2	1	0	1	0	34.8613	-0.129438	-0.130191	0.0293489	2	-0.00175137	3.82094e-06
2	1	0	0	0	34.8911	-0.126439	-0.12718	0.029305	2	-0.00175048	3.72701e-06
2	1	0	0	0	34.9211	-0.12344	-0.124178	0.0291169	2	-0.0017496	3.61569e-06
2	1	0	0	0	34.9511	-0.120441	-0.121168	0.0289403	2	-0.00174872	3.50664e-06
2	1	0	0	0	34.9811	-0.117442	-0.118209	0.0287407	2	-0.00174784	3.39741e-06
2	1	0	0	0	35.0111	-0.114444	-0.115196	0.0285759	2	-0.00174697	3.29183e-06
2	1	0	0	0	35.0411	-0.111445	-0.112189	0.0282879	2	-0.00174611	3.17359e-06
2	1	0	0	0	35.0711	-0.108446	-0.109192	0.0279935	2	-0.00174526	3.05666e-06
2	1	0	0	0	35.1011	-0.105447	-0.106195	0.0277553	2	-0.00174441	2.94748e-06
2	1	0	0	0	35.1311	-0.102448	-0.103188	0.0274522	2	-0.00174358	2.83275e-06
2	1	0	0	0	35.1611	-0.0994489	-0.10018	0.0270969	2	-0.00174275	2.71457e-06
2	1	0	0	0	35.1911	-0.0964499	-0.0971766	0.026773	2	-0.00174193	2.6017e-06
2	1	0	0	0	35.2211	-0.093451	-0.0941953	0.0264411	2	-0.00174112	2.49063e-06
2	1	0	0	0	35.2511	-0.0904521	-0.0911858	0.0260931	2	-0.00174033	2.37932e-06
2	1	0	0	0	35.2811	-0.0874531	-0.0881883	0.0257409	2	-0.00173954	2.27005e-06
2	1	0	0	0	35.3111	-0.0844542	-0.0851841	0.025368	2	-0.00173877	2.16095e-06
2	1	0	0	0	35.3411	-0.0814553	-0.0821771	0.0250155	2	-0.001738	2.0557e-06
2	1	0	0	0	35.3711	-0.0784564	-0.0791929	0.0246148	2	-0.00173725	1.94932e-06
2	1	0	0	0	35.4011	-0.0754574	-0.076209	0.0242681	2	-0.0017365	1.84945e-06
2	1	0	0	0	35.431	-0.0724631	-0.073207	0.0239404	2	-0.00173577	1.75261e-06
2	1	0	1	0	35.4609	-0.0694596	-0.0702023	0.0235461	2	-0.00173506	1.65299e-06
2	1	0	1	0	35.4909	-0.0664607	-0.0671868	0.0231714	2	-0.00173435	1.55681e-06
2	1	0	1	0	35.5209	-0.0634617	-0.0641947	0.0228651	2	-0.00173365	1.46782e-06
2	1	0	1	0	35.5509	-0.0604628	-0.0611909	0.0225316	2	-0.00173296	1.37873e-06
2	1	0	1	0	35.5809	-0.0574639	-0.0582015	0.0221875	2	-0.00173228	1.29135e-06
2	1	0	1	0	35.6109	-0.0544649	-0.0552064	0.0218539	2	-0.00173161	1.20647e-06
2	1	0	1	0	35.6409	-0.051466	-0.0521954	0.0214995	2	-0.00173095	1.12218e-06
2	1	0	1	0	35.6709	-0.0484671	-0.0492086	0.0212558	2	-0.0017303	1.04597e-06
2	1	0	1	0	35.7009	-0.0454681	-0.0462044	0.0209291	2	-0.00172966	9.67014e-07
2	1	0	1	0	35.7309	-0.0424692	-0.0431978	0.0206955	2	-0.00172902	8.93999e-07
2	1	0	1	0	35.7609	-0.0394703	-0.0402163	0.020358	2	-0.0017284	8.18724e-07
2	1	0	1	0	35.7909	-0.0364714	-0.0371996	0.020094	2	-0.00172778	7.47488e-07
2	1	0	1	0	35.8209	-0.0334724	-0.034211	0.0198418	2	-0.00172718	6.78809e-07
2	1	0	1	0	35.8509	-0.0304735	-0.0312208	0.0195988	2	-0.00172658	6.1189e-07
2	1	0	1	0	35.8809	-0.0274746	-0.0282191	0.0193637	2	-0.00172598	5.46426e-07
2	1	0	1	0	35.9109	-0.0244756	-0.02522	0.0191237	2	-0.0017254	4.823e-07
2	1	0	1	0	35.9409	-0.0214767	-0.0222075	0.0189916	2	-0.00172481	4.21756e-07
2	1	0	1	0	35.9709	-0.0184778	-0.0192334	0.0187909	2	-0.00172424	3.61413e-07
2	1	0	0	0	35.9962	-0.0159287	-0.0166849	0.0186668	2	-0.00172376	3.11455e-07