File: TAP_Report/Data/Res_growth/blank_3_2.mpt
EC-Lab ASCII FILE
Nb header lines : 54

Cyclic Voltammetry

Run on channel : 1 (SN 0696)
User :
Electrode connection : standard
Ewe ctrl range : min = -2.50 V, max = 2.50 V
Ewe,I filtering : 50 kHz
Channel : Grounded
Acquisition started on : 01/18/2017 14:24:36
Saved on :
	File : blank_3.mpr
	Directory : H:\EC-Lab\Data\Resazurin Bulk 18-1-17\
	Host : 144.32.136.43
Device : SP-300 (SN 0182)
Address : USB
EC-Lab for windows v10.44 (software)
Internet server v10.44 (firmware)
Command interpretor v10.44 (firmware)
Electrode material :
Initial state :
Electrolyte :
Comments :
Cable : standard
Reference electrode : SCE Saturated Calomel Electrode (0.241 V)
Electrode surface area : 0.001 cm²
Characteristic mass : 0.001 g
Equivalent Weight : 0.000 g/eq.
Density : 0.000 g/cm3
Ei (V)              0.000
vs.                 Eoc
dE/dt               100.000
dE/dt unit          mV/s
E1 (V)              0.000
vs.                 Ref
Step percent        50
N                   10
E range min (V)     -2.500
E range max (V)     2.500
I Range             Auto
I Range min         Unset
I Range max         Unset
I Range init        Unset
Bandwidth           8
E2 (V)              -0.900
vs.                 Ref
nc cycles           2
Reverse Scan        1
Ef (V)              0.000
vs.                 Eoc

mode	ox/red	error	control changes	counter inc.	time/s	control/V	Ewe/V	<I>/mA	cycle number	(Q-Qo)/C	P/W
2	1	0	1	1	17.9986	-0.0106306	-0.0110379	0.0140013	2	-0.00092101	1.54546e-07
2	1	0	0	1	18.0241	-0.00808151	-0.00849837	0.0140563	2	-0.000920644	1.19455e-07
2	1	0	0	1	18.0541	-0.00508258	-0.00549839	0.0139273	2	-0.000920216	7.65776e-08
2	1	0	0	1	18.0841	-0.00208365	-0.00249927	0.0138518	2	-0.00091979	3.46194e-08
2	0	0	0	1	18.1052	-3.43797e-05	-0.000469254	0.0134353	2	-0.000919493	6.30459e-09
2	0	0	1	1	18.1307	-0.00258347	-0.0030561	0.0101629	2	-0.00091922	3.10588e-08
2	0	0	1	1	18.1607	-0.0055824	-0.00606753	0.00893452	2	-0.000918943	5.42104e-08
2	0	0	1	1	18.1907	-0.00858133	-0.00905966	0.00808041	2	-0.000918695	7.32057e-08
2	0	0	0	1	18.2205	-0.0115803	-0.0120683	0.00736784	2	-0.000918473	8.89175e-08
2	0	0	0	1	18.2505	-0.0145792	-0.0150624	0.00672869	2	-0.00091827	1.0135e-07
2	0	0	0	1	18.2805	-0.0175781	-0.0180615	0.00620633	2	-0.000918083	1.12096e-07
2	0	0	0	1	18.3105	-0.020577	-0.0210398	0.00574035	2	-0.000917912	1.20776e-07
2	0	0	0	1	18.3405	-0.023576	-0.0240369	0.0052843	2	-0.000917754	1.27018e-07
2	0	0	0	1	18.3705	-0.0265749	-0.0270279	0.00489716	2	-0.000917609	1.3236e-07
2	0	0	1	1	18.4315	-0.0326727	-0.0331423	0.00389351	2	-0.000917353	1.2904e-07
2	0	0	1	1	18.4615	-0.0356717	-0.0361567	0.00358065	2	-0.000917242	1.29465e-07
2	0	0	1	1	18.4915	-0.0386706	-0.0391455	0.003262	2	-0.00091714	1.27693e-07
2	0	0	1	1	18.5215	-0.0416695	-0.0421293	0.00297886	2	-0.000917046	1.25497e-07
2	0	0	1	1	18.5515	-0.0446684	-0.045145	0.00270875	2	-0.000916962	1.22286e-07
2	0	0	1	1	18.5815	-0.0476674	-0.0481439	0.00245137	2	-0.000916885	1.18019e-07
2	0	0	1	1	18.6115	-0.0506663	-0.0511464	0.00220863	2	-0.000916815	1.12963e-07
2	0	0	1	1	18.6415	-0.0536652	-0.0541337	0.00198704	2	-0.000916753	1.07566e-07
2	0	0	1	1	18.6715	-0.0566641	-0.0571256	0.00177275	2	-0.000916697	1.01269e-07
2	0	0	1	1	18.7015	-0.0596631	-0.0601398	0.00154166	2	-0.000916648	9.27149e-08
2	0	0	1	1	18.7315	-0.062662	-0.0631412	0.00132921	2	-0.000916605	8.39277e-08
2	0	0	1	1	18.7615	-0.0656609	-0.0661399	0.00113554	2	-0.000916568	7.51045e-08
2	0	0	0	1	18.7913	-0.0686599	-0.0691452	0.00094473	2	-0.000916538	6.53235e-08
2	0	0	0	1	18.8213	-0.0716588	-0.0721344	0.000764897	2	-0.000916512	5.51753e-08
2	0	0	0	1	18.8513	-0.0746577	-0.0751466	0.00059036	2	-0.000916492	4.43636e-08
2	0	0	0	1	18.8813	-0.0776566	-0.078147	0.000408672	2	-0.000916478	3.19365e-08
2	0	0	0	1	18.9113	-0.0806556	-0.0811182	0.000245471	2	-0.000916468	1.99121e-08
2	0	0	0	1	18.9413	-0.0836545	-0.0841432	7.66633e-05	2	-0.000916464	6.4507e-09
2	0	0	0	1	18.9713	-0.0866534	-0.0871226	-8.42163e-05	2	-0.000916465	7.33714e-09
2	0	0	0	1	19.0013	-0.0896524	-0.0901321	-0.00025533	2	-0.000916471	2.30135e-08
2	0	0	0	1	19.0313	-0.0926513	-0.0931221	-0.000426562	2	-0.000916481	3.97223e-08
2	0	0	0	1	19.0613	-0.0956502	-0.0961342	-0.000587069	2	-0.000916497	5.64374e-08
2	0	0	0	1	19.0913	-0.0986491	-0.0991197	-0.000743779	2	-0.000916517	7.37232e-08
2	0	0	0	1	19.1213	-0.101648	-0.102132	-0.000913752	2	-0.000916542	9.33237e-08
2	0	0	0	1	19.1513	-0.104647	-0.105115	-0.00108074	2	-0.000916572	1.13602e-07
2	0	0	0	1	19.1813	-0.107646	-0.108139	-0.00121978	2	-0.000916606	1.31905e-07
2	0	0	0	1	19.2113	-0.110645	-0.111127	-0.0013861	2	-0.000916646	1.54033e-07
2	0	0	0	1	19.2413	-0.113644	-0.11413	-0.0015529	2	-0.00091669	1.77232e-07
2	0	0	0	1	19.2713	-0.116643	-0.117141	-0.00171709	2	-0.000916739	2.01141e-07
2	0	0	0	1	19.3013	-0.119642	-0.120148	-0.00187267	2	-0.000916793	2.24998e-07
2	0	0	0	1	19.3312	-0.122634	-0.123119	-0.00204978	2	-0.000916851	2.52366e-07
2	0	0	1	1	19.3611	-0.125639	-0.126128	-0.00219986	2	-0.000916915	2.77463e-07
2	0	0	1	1	19.3911	-0.128638	-0.129122	-0.00238306	2	-0.000916984	3.07707e-07
2	0	0	1	1	19.4211	-0.131637	-0.132131	-0.00254147	2	-0.000917059	3.35807e-07
2	0	0	1	1	19.4511	-0.134636	-0.135125	-0.0027224	2	-0.000917138	3.67863e-07
2	0	0	1	1	19.4811	-0.137635	-0.138127	-0.00290367	2	-0.000917223	4.01076e-07
2	0	0	1	1	19.5111	-0.140634	-0.141127	-0.00309078	2	-0.000917313	4.36193e-07
2	0	0	1	1	19.5411	-0.143633	-0.144135	-0.00329036	2	-0.000917409	4.74254e-07
2	0	0	1	1	19.5711	-0.146632	-0.147142	-0.003478	2	-0.000917511	5.1176e-07
2	0	0	1	1	19.6011	-0.149631	-0.150128	-0.0036848	2	-0.000917619	5.5319e-07
2	0	0	1	1	19.6311	-0.15263	-0.153144	-0.0038928	2	-0.000917733	5.96158e-07
2	0	0	1	1	19.6611	-0.155629	-0.156135	-0.004107	2	-0.000917853	6.41245e-07
2	0	0	1	1	19.6911	-0.158628	-0.159146	-0.00432542	2	-0.00091798	6.88372e-07
2	0	0	1	1	19.7211	-0.161627	-0.16213	-0.00455718	2	-0.000918114	7.38853e-07
2	0	0	1	1	19.7511	-0.164626	-0.16514	-0.00480925	2	-0.000918254	7.94201e-07
2	0	0	1	1	19.7811	-0.167625	-0.168145	-0.00504563	2	-0.000918402	8.48399e-07
2	0	0	1	1	19.8111	-0.170623	-0.171154	-0.00530492	2	-0.000918557	9.07958e-07
2	0	0	1	1	19.8411	-0.173622	-0.17413	-0.00555046	2	-0.00091872	9.66504e-07
2	0	0	1	1	19.8711	-0.176621	-0.177154	-0.00582954	2	-0.000918891	1.03273e-06
2	0	0	0	1	19.9009	-0.17962	-0.180118	-0.00609457	2	-0.000919069	1.09774e-06
2	0	0	0	1	19.9309	-0.182619	-0.183151	-0.00640004	2	-0.000919257	1.17218e-06
2	0	0	0	1	19.9609	-0.185618	-0.186142	-0.00668792	2	-0.000919454	1.24491e-06
2	0	0	0	1	19.9909	-0.188617	-0.189131	-0.00701484	2	-0.00091966	1.32672e-06
2	0	0	0	1	20.0209	-0.191616	-0.192162	-0.00733835	2	-0.000919876	1.41015e-06
2	0	0	0	1	20.0509	-0.194615	-0.195153	-0.00769288	2	-0.000920101	1.50129e-06
2	0	0	0	1	20.0809	-0.197614	-0.198134	-0.00802765	2	-0.000920338	1.59055e-06
2	0	0	0	1	20.1109	-0.200613	-0.201139	-0.0084114	2	-0.000920585	1.69186e-06
2	0	0	0	1	20.1409	-0.203612	-0.204155	-0.00878762	2	-0.000920843	1.79404e-06
2	0	0	0	1	20.1709	-0.206611	-0.207151	-0.00919062	2	-0.000921113	1.90384e-06
2	0	0	0	1	20.2009	-0.209609	-0.210143	-0.00959432	2	-0.000921395	2.01617e-06
2	0	0	0	1	20.2309	-0.212608	-0.213144	-0.0100293	2	-0.00092169	2.13769e-06
2	0	0	1	1	20.2919	-0.218706	-0.219214	-0.0107106	2	-0.000922324	2.34792e-06
2	0	0	1	1	20.3219	-0.221705	-0.222223	-0.0111743	2	-0.00092266	2.48319e-06
2	0	0	1	1	20.3519	-0.224704	-0.225205	-0.0116516	2	-0.00092301	2.624e-06
2	0	0	1	1	20.3819	-0.227703	-0.22821	-0.0122193	2	-0.000923375	2.78856e-06
2	0	0	1	1	20.4119	-0.230702	-0.23121	-0.0127159	2	-0.000923757	2.94005e-06
2	0	0	1	1	20.4419	-0.233701	-0.234189	-0.0132611	2	-0.000924154	3.1056e-06
2	0	0	0	1	20.4717	-0.2367	-0.237206	-0.0138367	2	-0.000924565	3.28215e-06
2	0	0	0	1	20.5017	-0.239699	-0.240191	-0.0143862	2	-0.000924997	3.45545e-06
2	0	0	0	1	20.5317	-0.242698	-0.243175	-0.0149961	2	-0.000925446	3.64668e-06
2	0	0	0	1	20.5617	-0.245697	-0.246193	-0.0155661	2	-0.000925913	3.83225e-06
2	0	0	0	1	20.5917	-0.248696	-0.249168	-0.0161829	2	-0.000926398	4.03226e-06
2	0	0	0	1	20.6217	-0.251694	-0.252191	-0.0168453	2	-0.000926901	4.24824e-06
2	0	0	0	1	20.6517	-0.254693	-0.255177	-0.017501	2	-0.000927424	4.46587e-06
2	0	0	0	1	20.6817	-0.257692	-0.258189	-0.018152	2	-0.000927966	4.68665e-06
2	0	0	0	1	20.7117	-0.260691	-0.261196	-0.0188038	2	-0.000928528	4.91149e-06
2	0	0	0	1	20.7417	-0.26369	-0.264181	-0.0194444	2	-0.000929109	5.13684e-06
2	0	0	0	1	20.7717	-0.266689	-0.267183	-0.0200994	2	-0.000929711	5.3702e-06
2	0	0	0	1	20.8017	-0.269688	-0.270188	-0.0208143	2	-0.000930332	5.62378e-06
2	0	0	0	1	20.8317	-0.272687	-0.273184	-0.0214482	2	-0.000930974	5.85929e-06
2	0	0	0	1	20.8617	-0.275686	-0.276173	-0.0221336	2	-0.000931636	6.1127e-06
2	0	0	0	1	20.8917	-0.278685	-0.279176	-0.0228099	2	-0.000932319	6.36796e-06
2	0	0	0	1	20.9217	-0.281684	-0.282178	-0.0235181	2	-0.000933021	6.63629e-06
2	0	0	0	1	20.9517	-0.284683	-0.285186	-0.0241832	2	-0.000933745	6.89673e-06
2	0	0	0	1	20.9817	-0.287682	-0.288155	-0.024851	2	-0.000934488	7.16095e-06
2	0	0	0	1	21.0116	-0.290676	-0.29115	-0.0255864	2	-0.00093525	7.44949e-06
2	0	0	1	1	21.0415	-0.293679	-0.294164	-0.0262528	2	-0.000936033	7.72264e-06
2	0	0	1	1	21.0715	-0.296678	-0.297164	-0.0269482	2	-0.000936839	8.00803e-06
2	0	0	1	1	21.1015	-0.299677	-0.300177	-0.0276417	2	-0.000937666	8.29739e-06
2	0	0	1	1	21.1315	-0.302676	-0.303155	-0.0282824	2	-0.000938513	8.57395e-06
2	0	0	1	1	21.1615	-0.305675	-0.306183	-0.0290566	2	-0.000939381	8.89665e-06
2	0	0	1	1	21.1915	-0.308674	-0.309158	-0.0297123	2	-0.00094027	9.1858e-06
2	0	0	1	1	21.2215	-0.311673	-0.312181	-0.0304123	2	-0.00094118	9.49415e-06
2	0	0	1	1	21.2515	-0.314672	-0.315167	-0.0310741	2	-0.00094211	9.79354e-06
2	0	0	1	1	21.2815	-0.317671	-0.31816	-0.031807	2	-0.000943061	1.01197e-05
2	0	0	1	1	21.3115	-0.32067	-0.321163	-0.0325105	2	-0.000944034	1.04412e-05
2	0	0	1	1	21.3415	-0.323669	-0.324168	-0.0331822	2	-0.000945027	1.07566e-05
2	0	0	1	1	21.3715	-0.326668	-0.327146	-0.0338897	2	-0.000946041	1.10869e-05
2	0	0	1	1	21.4015	-0.329667	-0.330151	-0.0346052	2	-0.000947076	1.14249e-05
2	0	0	1	1	21.4315	-0.332666	-0.333154	-0.0353051	2	-0.000948132	1.1762e-05
2	0	0	1	1	21.4615	-0.335664	-0.33615	-0.036016	2	-0.00094921	1.21068e-05
2	0	0	1	1	21.4915	-0.338663	-0.339152	-0.0367231	2	-0.000950309	1.24547e-05
2	0	0	1	1	21.5215	-0.341662	-0.342165	-0.0374231	2	-0.00095143	1.28049e-05
2	0	0	1	1	21.5515	-0.344661	-0.345158	-0.0381768	2	-0.000952572	1.3177e-05
2	0	0	0	1	21.5813	-0.34766	-0.348171	-0.0389449	2	-0.000953729	1.35595e-05
2	0	0	0	1	21.6113	-0.350659	-0.351164	-0.0396572	2	-0.000954916	1.39262e-05
2	0	0	0	1	21.6413	-0.353658	-0.354146	-0.0403642	2	-0.000956124	1.42948e-05
2	0	0	0	1	21.6713	-0.356657	-0.357169	-0.0411288	2	-0.000957354	1.46899e-05
2	0	0	0	1	21.7013	-0.359656	-0.360147	-0.0418525	2	-0.000958606	1.50731e-05
2	0	0	0	1	21.7313	-0.362655	-0.363156	-0.0426228	2	-0.000959881	1.54787e-05
2	0	0	0	1	21.7613	-0.365654	-0.366148	-0.0433398	2	-0.000961178	1.58688e-05
2	0	0	0	1	21.7913	-0.368653	-0.369149	-0.0441033	2	-0.000962497	1.62807e-05
2	0	0	0	1	21.8213	-0.371652	-0.372156	-0.0448248	2	-0.000963839	1.66818e-05
2	0	0	0	1	21.8513	-0.37465	-0.375146	-0.0456163	2	-0.000965204	1.71128e-05
2	0	0	0	1	21.8813	-0.377649	-0.378145	-0.046336	2	-0.000966591	1.75217e-05
2	0	0	0	1	21.9113	-0.380648	-0.381148	-0.0470927	2	-0.000968	1.79493e-05
2	0	0	0	1	21.9413	-0.383647	-0.384154	-0.0478129	2	-0.000969432	1.83675e-05
2	0	0	0	1	21.9713	-0.386646	-0.387159	-0.0485728	2	-0.000970886	1.88054e-05
2	0	0	0	1	22.0013	-0.389645	-0.390122	-0.0493005	2	-0.000972362	1.92332e-05
2	0	0	0	1	22.0313	-0.392644	-0.393148	-0.0500332	2	-0.000973861	1.96704e-05
2	0	0	0	1	22.0613	-0.395643	-0.396156	-0.0508142	2	-0.000975381	2.01303e-05
2	0	0	0	1	22.0913	-0.398642	-0.399141	-0.0515318	2	-0.000976924	2.05685e-05
2	0	0	0	1	22.1213	-0.401641	-0.402151	-0.0522089	2	-0.000978488	2.09959e-05
2	0	0	1	1	22.1511	-0.40464	-0.405136	-0.0529437	2	-0.000980063	2.14494e-05
2	0	0	1	1	22.1811	-0.407639	-0.408127	-0.0536056	2	-0.000981669	2.18779e-05
2	0	0	1	1	22.2111	-0.410638	-0.411152	-0.0543276	2	-0.000983296	2.23369e-05
2	0	0	1	1	22.2411	-0.413637	-0.414149	-0.055016	2	-0.000984944	2.27848e-05
2	0	0	1	1	22.2711	-0.416635	-0.417152	-0.055629	2	-0.000986611	2.32057e-05
2	0	0	1	1	22.3011	-0.419634	-0.420152	-0.0562714	2	-0.000988297	2.36425e-05
2	0	0	1	1	22.3311	-0.422633	-0.423165	-0.056904	2	-0.000990003	2.40797e-05
2	0	0	1	1	22.3611	-0.425632	-0.426154	-0.0575058	2	-0.000991728	2.45063e-05
2	0	0	1	1	22.3911	-0.428631	-0.429161	-0.0581292	2	-0.00099347	2.49468e-05
2	0	0	1	1	22.4211	-0.43163	-0.432168	-0.0587083	2	-0.00099523	2.53718e-05
2	0	0	1	1	22.4511	-0.434629	-0.43515	-0.059244	2	-0.000997007	2.578e-05
2	0	0	1	1	22.4811	-0.437628	-0.438155	-0.0598285	2	-0.0009988	2.62141e-05
2	0	0	1	1	22.5111	-0.440627	-0.441133	-0.0603021	2	-0.00100061	2.66013e-05
2	0	0	1	1	22.5411	-0.443626	-0.444134	-0.0608107	2	-0.00100243	2.70081e-05
2	0	0	1	1	22.5711	-0.446625	-0.447141	-0.0613319	2	-0.00100427	2.7424e-05
2	0	0	1	1	22.6011	-0.449624	-0.450128	-0.0617733	2	-0.00100613	2.78059e-05
2	0	0	1	1	22.6311	-0.452623	-0.45314	-0.0622273	2	-0.001008	2.81977e-05
2	0	0	1	1	22.6611	-0.455622	-0.456137	-0.062662	2	-0.00100988	2.85825e-05
2	0	0	1	1	22.691	-0.458618	-0.459143	-0.0630924	2	-0.00101176	2.89685e-05
2	0	0	0	1	22.7209	-0.461619	-0.462132	-0.0634301	2	-0.00101366	2.93131e-05
2	0	0	0	1	22.7509	-0.464618	-0.465124	-0.063841	2	-0.00101558	2.9694e-05
2	0	0	0	1	22.7809	-0.467617	-0.468121	-0.0642118	2	-0.00101751	3.00589e-05
2	0	0	0	1	22.8109	-0.470616	-0.471128	-0.0645767	2	-0.00101945	3.04239e-05
2	0	0	0	1	22.8409	-0.473615	-0.474129	-0.0648824	2	-0.0010214	3.07626e-05
2	0	0	0	1	22.8709	-0.476614	-0.477141	-0.0651796	2	-0.00102336	3.10999e-05
2	0	0	0	1	22.9009	-0.479613	-0.480121	-0.0654831	2	-0.00102532	3.14398e-05
2	0	0	0	1	22.9309	-0.482612	-0.48313	-0.0657827	2	-0.0010273	3.17816e-05
2	0	0	0	1	22.9609	-0.485611	-0.48614	-0.0661003	2	-0.00102929	3.2134e-05
2	0	0	0	1	22.9909	-0.48861	-0.489105	-0.0663122	2	-0.00103128	3.24337e-05
2	0	0	0	1	23.0209	-0.491609	-0.49212	-0.066573	2	-0.00103328	3.27619e-05
2	0	0	0	1	23.0509	-0.494608	-0.495105	-0.0668432	2	-0.00103529	3.30944e-05
2	0	0	0	1	23.0809	-0.497607	-0.498132	-0.0670813	2	-0.00103731	3.34153e-05
2	0	0	0	1	23.1109	-0.500606	-0.501124	-0.067304	2	-0.00103933	3.37277e-05
2	0	0	0	1	23.1409	-0.503604	-0.504127	-0.0675637	2	-0.00104136	3.40607e-05
2	0	0	0	1	23.1709	-0.506603	-0.50713	-0.0677464	2	-0.0010434	3.43562e-05
2	0	0	0	1	23.2009	-0.509602	-0.510117	-0.0679895	2	-0.00104544	3.46826e-05
2	0	0	0	1	23.2309	-0.512601	-0.513117	-0.0681526	2	-0.00104749	3.49702e-05
2	0	0	1	1	23.2607	-0.5156	-0.516125	-0.0683918	2	-0.00104953	3.52987e-05
2	0	0	1	1	23.2907	-0.518599	-0.519115	-0.0685916	2	-0.0010516	3.56069e-05
2	0	0	1	1	23.3207	-0.521598	-0.522116	-0.0687554	2	-0.00105366	3.58983e-05
2	0	0	1	1	23.3507	-0.524597	-0.525122	-0.0689614	2	-0.00105574	3.62131e-05
2	0	0	1	1	23.3807	-0.527596	-0.528123	-0.069127	2	-0.00105782	3.65076e-05
2	0	0	1	1	23.4107	-0.530595	-0.531126	-0.0693232	2	-0.0010599	3.68193e-05
2	0	0	1	1	23.4407	-0.533594	-0.534112	-0.0694694	2	-0.00106199	3.71044e-05
2	0	0	1	1	23.4707	-0.536593	-0.537111	-0.0696427	2	-0.00106408	3.74059e-05
2	0	0	1	1	23.5007	-0.539592	-0.540127	-0.0697942	2	-0.00106618	3.76977e-05
2	0	0	1	1	23.5307	-0.54259	-0.543126	-0.0699883	2	-0.00106829	3.80125e-05
2	0	0	1	1	23.5607	-0.545589	-0.54611	-0.0701679	2	-0.0010704	3.83194e-05
2	0	0	1	1	23.5907	-0.548588	-0.549105	-0.0703065	2	-0.00107251	3.86057e-05
2	0	0	1	1	23.6207	-0.551587	-0.552128	-0.0704607	2	-0.00107463	3.89033e-05
2	0	0	1	1	23.6507	-0.554586	-0.555107	-0.0706031	2	-0.00107676	3.91923e-05
2	0	0	1	1	23.6807	-0.557585	-0.558113	-0.0708097	2	-0.00107889	3.95198e-05
2	0	0	1	1	23.7107	-0.560584	-0.561108	-0.0709839	2	-0.00108102	3.98297e-05
2	0	0	1	1	23.7407	-0.563583	-0.564104	-0.0711322	2	-0.00108316	4.01259e-05
2	0	0	1	1	23.7707	-0.566582	-0.567098	-0.0712565	2	-0.0010853	4.04094e-05
2	0	0	1	1	23.8007	-0.569581	-0.570096	-0.0714056	2	-0.00108745	4.0708e-05
2	0	0	0	1	23.8305	-0.57258	-0.573086	-0.071577	2	-0.00108959	4.10198e-05
2	0	0	0	1	23.8605	-0.575579	-0.5761	-0.0717535	2	-0.00109175	4.13372e-05
2	0	0	0	1	23.8905	-0.578578	-0.579102	-0.0719116	2	-0.00109391	4.16441e-05
2	0	0	0	1	23.9205	-0.581577	-0.582103	-0.0720505	2	-0.00109607	4.19408e-05
2	0	0	0	1	23.9505	-0.584576	-0.585093	-0.072186	2	-0.00109825	4.22355e-05
2	0	0	0	1	23.9805	-0.587574	-0.588091	-0.0723579	2	-0.00110042	4.2553e-05
2	0	0	0	1	24.0105	-0.590573	-0.59109	-0.0725442	2	-0.0011026	4.28802e-05
2	0	0	0	1	24.0405	-0.593572	-0.594092	-0.0727019	2	-0.00110479	4.31916e-05
2	0	0	0	1	24.0705	-0.596571	-0.597084	-0.0728617	2	-0.00110698	4.35045e-05
2	0	0	0	1	24.1005	-0.59957	-0.600067	-0.0730157	2	-0.00110917	4.38143e-05
2	0	0	0	1	24.1305	-0.602569	-0.603087	-0.0731504	2	-0.00111137	4.4116e-05
2	0	0	0	1	24.1605	-0.605568	-0.606081	-0.0733435	2	-0.00111358	4.44521e-05
2	0	0	0	1	24.1905	-0.608567	-0.609064	-0.0735186	2	-0.00111579	4.47775e-05
2	0	0	0	1	24.2205	-0.611566	-0.61207	-0.0736831	2	-0.001118	4.50992e-05
2	0	0	0	1	24.2505	-0.614565	-0.615092	-0.0738714	2	-0.00112023	4.54377e-05
2	0	0	0	1	24.2805	-0.617564	-0.618087	-0.074047	2	-0.00112245	4.57675e-05
2	0	0	0	1	24.3105	-0.620563	-0.621103	-0.0742052	2	-0.00112468	4.60891e-05
2	0	0	0	1	24.3405	-0.623562	-0.624088	-0.0743519	2	-0.00112692	4.64022e-05
2	0	0	0	1	24.3704	-0.626561	-0.627086	-0.0746078	2	-0.00112915	4.67855e-05
2	0	0	1	1	24.4003	-0.629559	-0.630097	-0.0747766	2	-0.00113139	4.71165e-05
2	0	0	1	1	24.4303	-0.632558	-0.633096	-0.0749301	2	-0.00113365	4.7438e-05
2	0	0	1	1	24.4603	-0.635557	-0.636085	-0.075115	2	-0.00113591	4.77795e-05
2	0	0	1	1	24.4903	-0.638556	-0.639076	-0.0753794	2	-0.00113817	4.81732e-05
2	0	0	1	1	24.5203	-0.641555	-0.642081	-0.0755741	2	-0.00114044	4.85247e-05
2	0	0	1	1	24.5503	-0.644554	-0.645084	-0.0758003	2	-0.00114272	4.88976e-05
2	0	0	1	1	24.5803	-0.647553	-0.64808	-0.0759692	2	-0.001145	4.92341e-05
2	0	0	1	1	24.6103	-0.650552	-0.651074	-0.0762251	2	-0.00114729	4.96282e-05
2	0	0	1	1	24.6403	-0.653551	-0.654087	-0.0764219	2	-0.00114959	4.99866e-05
2	0	0	1	1	24.6703	-0.65655	-0.657074	-0.0766573	2	-0.00115189	5.03695e-05
2	0	0	1	1	24.7003	-0.659549	-0.660064	-0.0768667	2	-0.0011542	5.07369e-05
2	0	0	1	1	24.7303	-0.662548	-0.66307	-0.0771373	2	-0.00115652	5.11474e-05
2	0	0	1	1	24.7603	-0.665547	-0.66608	-0.0773421	2	-0.00115885	5.15161e-05
2	0	0	1	1	24.7903	-0.668545	-0.669078	-0.0776002	2	-0.00116118	5.19206e-05
2	0	0	1	1	24.8203	-0.671544	-0.672085	-0.0779196	2	-0.00116352	5.23686e-05
2	0	0	1	1	24.8503	-0.674543	-0.675064	-0.0781832	2	-0.00116587	5.27786e-05
2	0	0	1	1	24.8803	-0.677542	-0.678066	-0.0784496	2	-0.00116822	5.3194e-05
2	0	0	1	1	24.9103	-0.680541	-0.681067	-0.078717	2	-0.00117059	5.36116e-05
2	0	0	0	1	24.9401	-0.68354	-0.684066	-0.0790457	2	-0.00117295	5.40725e-05
2	0	0	0	1	24.9701	-0.686539	-0.687055	-0.079358	2	-0.00117533	5.45233e-05
2	0	0	0	1	25.0001	-0.689538	-0.69006	-0.0796141	2	-0.00117772	5.49385e-05
2	0	0	0	1	25.0301	-0.692537	-0.693057	-0.0799441	2	-0.00118012	5.54058e-05
2	0	0	0	1	25.0601	-0.695536	-0.696066	-0.0802947	2	-0.00118254	5.58904e-05
2	0	0	0	1	25.0901	-0.698535	-0.699061	-0.0806354	2	-0.00118496	5.63691e-05
2	0	0	0	1	25.1201	-0.701534	-0.702043	-0.0810007	2	-0.00118739	5.6866e-05
2	0	0	0	1	25.1501	-0.704533	-0.705043	-0.0813719	2	-0.00118983	5.73707e-05
2	0	0	0	1	25.1801	-0.707532	-0.708058	-0.0817501	2	-0.00119229	5.78838e-05
2	0	0	0	1	25.2101	-0.710531	-0.71105	-0.0821485	2	-0.00119475	5.84117e-05
2	0	0	0	1	25.2401	-0.713529	-0.714038	-0.0825532	2	-0.00119723	5.89461e-05
2	0	0	0	1	25.2701	-0.716528	-0.717066	-0.0829814	2	-0.00119972	5.95031e-05
2	0	0	0	1	25.3001	-0.719527	-0.720055	-0.0834374	2	-0.00120222	6.00795e-05
2	0	0	0	1	25.3301	-0.722526	-0.72305	-0.0838446	2	-0.00120474	6.06239e-05
2	0	0	0	1	25.3601	-0.725525	-0.726029	-0.0842836	2	-0.00120727	6.11924e-05
2	0	0	0	1	25.3901	-0.728524	-0.729047	-0.0848212	2	-0.00120981	6.18386e-05
2	0	0	0	1	25.4201	-0.731523	-0.732051	-0.0853472	2	-0.00121237	6.24785e-05
2	0	0	0	1	25.4501	-0.734522	-0.735049	-0.085868	2	-0.00121495	6.31172e-05
2	0	0	0	1	25.4801	-0.737521	-0.738052	-0.0864509	2	-0.00121754	6.38053e-05
2	0	0	1	1	25.5099	-0.74052	-0.741035	-0.0870246	2	-0.00122013	6.44883e-05
2	0	0	1	1	25.5399	-0.743519	-0.744035	-0.0876466	2	-0.00122276	6.52121e-05
2	0	0	1	1	25.5699	-0.746518	-0.74704	-0.0882661	2	-0.00122541	6.59383e-05
2	0	0	1	1	25.5999	-0.749517	-0.750023	-0.0889089	2	-0.00122807	6.66837e-05
2	0	0	1	1	25.6299	-0.752515	-0.753033	-0.0896072	2	-0.00123075	6.74772e-05
2	0	0	1	1	25.6599	-0.755514	-0.75603	-0.0903272	2	-0.00123346	6.82901e-05
2	0	0	1	1	25.6899	-0.758513	-0.759049	-0.0911013	2	-0.00123619	6.91503e-05
2	0	0	1	1	25.7199	-0.761512	-0.762022	-0.0918291	2	-0.00123894	6.99758e-05
2	0	0	1	1	25.7499	-0.764511	-0.765031	-0.09268	2	-0.00124172	7.09031e-05
2	0	0	1	1	25.7799	-0.76751	-0.768038	-0.0935747	2	-0.00124452	7.18689e-05
2	0	0	1	1	25.8099	-0.770509	-0.771023	-0.0944628	2	-0.00124734	7.2833e-05
2	0	0	1	1	25.8399	-0.773508	-0.774033	-0.0953875	2	-0.0012502	7.38331e-05
2	0	0	1	1	25.8699	-0.776507	-0.777019	-0.0963654	2	-0.00125308	7.48778e-05
2	0	0	1	1	25.8999	-0.779506	-0.780032	-0.0974375	2	-0.001256	7.60044e-05
2	0	0	1	1	25.9299	-0.782505	-0.78303	-0.0985428	2	-0.00125894	7.7162e-05
2	0	0	1	1	25.9599	-0.785504	-0.786036	-0.0996953	2	-0.00126192	7.83641e-05
2	0	0	1	1	25.9899	-0.788503	-0.789022	-0.10087	2	-0.00126494	7.95884e-05
2	0	0	1	1	26.0199	-0.791502	-0.792016	-0.102115	2	-0.00126799	8.08765e-05
2	0	0	1	1	26.0807	-0.797599	-0.798028	-0.104288	2	-0.00127429	8.32244e-05
2	0	0	1	1	26.1107	-0.800598	-0.801031	-0.105738	2	-0.00127746	8.46993e-05
2	0	0	1	1	26.1407	-0.803597	-0.804043	-0.107229	2	-0.00128067	8.62169e-05
2	0	0	1	1	26.1707	-0.806596	-0.80705	-0.10877	2	-0.00128393	8.77825e-05
2	0	0	1	1	26.2007	-0.809595	-0.810039	-0.11044	2	-0.00128724	8.94611e-05
2	0	0	1	1	26.2307	-0.812594	-0.813037	-0.112203	2	-0.0012906	9.12248e-05
2	0	0	1	1	26.2607	-0.815593	-0.816029	-0.113941	2	-0.00129401	9.29795e-05
2	0	0	1	1	26.2907	-0.818592	-0.819035	-0.115831	2	-0.00129748	9.48695e-05
2	0	0	1	1	26.3207	-0.821591	-0.822044	-0.117809	2	-0.001301	9.68439e-05
2	0	0	1	1	26.3507	-0.82459	-0.825032	-0.119836	2	-0.00130459	9.88688e-05
2	0	0	1	1	26.3807	-0.827589	-0.828046	-0.121991	2	-0.00130824	0.000101014
2	0	0	1	1	26.4107	-0.830588	-0.831031	-0.124189	2	-0.00131195	0.000103205
2	0	0	1	1	26.4407	-0.833586	-0.834044	-0.126561	2	-0.00131573	0.000105557
2	0	0	1	1	26.4707	-0.836585	-0.837028	-0.128932	2	-0.00131958	0.00010792
2	0	0	1	1	26.5007	-0.839584	-0.840029	-0.131416	2	-0.00132351	0.000110393
2	0	0	1	1	26.5307	-0.842583	-0.843037	-0.133992	2	-0.00132751	0.00011296
2	0	0	1	1	26.5607	-0.845582	-0.846008	-0.136725	2	-0.00133159	0.00011567
2	0	0	1	1	26.5907	-0.848581	-0.849028	-0.139525	2	-0.00133575	0.000118461
2	0	0	0	1	26.6205	-0.85158	-0.852026	-0.142486	2	-0.00133998	0.000121402
2	0	0	0	1	26.6505	-0.854579	-0.855022	-0.145524	2	-0.00134432	0.000124426
2	0	0	0	1	26.6805	-0.857578	-0.858034	-0.14877	2	-0.00134875	0.00012765
2	0	0	0	1	26.7105	-0.860577	-0.86104	-0.152059	2	-0.00135329	0.000130929
2	0	0	0	1	26.7405	-0.863576	-0.86402	-0.155528	2	-0.00135792	0.000134379
2	0	0	0	1	26.7705	-0.866575	-0.867025	-0.159034	2	-0.00136266	0.000137887
2	0	0	0	1	26.8005	-0.869574	-0.870024	-0.162776	2	-0.00136751	0.000141619
2	0	0	0	1	26.8305	-0.872573	-0.873007	-0.166589	2	-0.00137247	0.000145433
2	0	0	0	1	26.8605	-0.875571	-0.875998	-0.170509	2	-0.00137754	0.000149366
2	0	0	0	1	26.8905	-0.87857	-0.879008	-0.174705	2	-0.00138275	0.000153567
2	0	0	0	1	26.9205	-0.881569	-0.88201	-0.17897	2	-0.00138807	0.000157853
2	0	0	0	1	26.9505	-0.884568	-0.885003	-0.183633	2	-0.00139353	0.000162516
2	0	0	0	1	26.9805	-0.887567	-0.888023	-0.188265	2	-0.00139913	0.000167183
2	0	0	0	1	27.0105	-0.890566	-0.891016	-0.193112	2	-0.00140487	0.000172066
2	0	0	0	1	27.0405	-0.893565	-0.893999	-0.198047	2	-0.00141076	0.000177054
2	0	0	0	1	27.0705	-0.896564	-0.89699	-0.203189	2	-0.0014168	0.000182258
2	0	0	0	1	27.1	-0.899513	-0.89995	-0.208594	2	-0.00142289	0.000187724
2	1	0	0	0	27.1109	-0.899363	-0.899812	-0.206063	2	-0.00142516	0.000185418
2	1	0	0	0	27.1409	-0.896364	-0.896805	-0.197421	2	-0.00143118	0.000177048
2	1	0	0	0	27.1709	-0.893365	-0.893802	-0.190296	2	-0.00143697	0.000170087
2	1	0	0	0	27.2009	-0.890366	-0.890791	-0.183752	2	-0.00144256	0.000163684
2	1	0	0	0	27.2309	-0.887367	-0.887814	-0.17776	2	-0.00144796	0.000157818
2	1	0	0	0	27.2609	-0.884368	-0.884809	-0.17198	2	-0.00145319	0.000152169
2	1	0	0	0	27.2909	-0.881369	-0.881786	-0.166478	2	-0.00145824	0.000146798
2	1	0	0	0	27.3209	-0.878371	-0.878792	-0.161301	2	-0.00146314	0.00014175
2	1	0	0	0	27.3509	-0.875372	-0.875805	-0.156155	2	-0.00146788	0.000136761
2	1	0	0	0	27.3809	-0.872373	-0.872818	-0.15141	2	-0.00147247	0.000132153
2	1	0	0	0	27.4109	-0.869374	-0.869813	-0.146752	2	-0.00147692	0.000127647
2	1	0	0	0	27.4409	-0.866375	-0.866821	-0.142293	2	-0.00148123	0.000123343
2	1	0	0	0	27.4709	-0.863376	-0.8638	-0.137912	2	-0.00148542	0.000119128
2	1	0	0	0	27.5009	-0.860377	-0.860814	-0.133831	2	-0.00148947	0.000115203
2	1	0	0	0	27.5309	-0.857378	-0.857824	-0.129886	2	-0.00149341	0.000111419
2	1	0	0	0	27.5609	-0.854379	-0.854813	-0.125979	2	-0.00149722	0.000107688
2	1	0	0	0	27.5909	-0.85138	-0.851806	-0.12234	2	-0.00150093	0.00010421
2	1	0	1	0	27.6207	-0.848381	-0.848823	-0.118822	2	-0.0015045	0.000100859
2	1	0	1	0	27.6507	-0.845382	-0.845802	-0.115427	2	-0.001508	9.76284e-05
2	1	0	1	0	27.6807	-0.842383	-0.842816	-0.1121	2	-0.00151139	9.44795e-05
2	1	0	1	0	27.7107	-0.839384	-0.839839	-0.109068	2	-0.00151468	9.15996e-05
2	1	0	1	0	27.7407	-0.836385	-0.836826	-0.105934	2	-0.00151789	8.86485e-05
2	1	0	1	0	27.7707	-0.833387	-0.833837	-0.102998	2	-0.001521	8.58837e-05
2	1	0	1	0	27.8007	-0.830388	-0.830843	-0.100189	2	-0.00152403	8.32412e-05
2	1	0	1	0	27.8307	-0.827389	-0.827842	-0.0974362	2	-0.00152697	8.06618e-05
2	1	0	1	0	27.8607	-0.82439	-0.824837	-0.0947603	2	-0.00152983	7.81619e-05
2	1	0	1	0	27.8907	-0.821391	-0.821833	-0.0922913	2	-0.00153262	7.5848e-05
2	1	0	1	0	27.9207	-0.818392	-0.818842	-0.0898969	2	-0.00153533	7.36113e-05
2	1	0	1	0	27.9507	-0.815393	-0.815836	-0.08758	2	-0.00153797	7.1451e-05
2	1	0	1	0	27.9807	-0.812394	-0.812825	-0.0852196	2	-0.00154054	6.92686e-05
2	1	0	1	0	28.0107	-0.809395	-0.809853	-0.083091	2	-0.00154304	6.72915e-05
2	1	0	1	0	28.0407	-0.806396	-0.806832	-0.0809858	2	-0.00154549	6.5342e-05
2	1	0	1	0	28.0707	-0.803397	-0.803832	-0.0789769	2	-0.00154787	6.34842e-05
2	1	0	1	0	28.1007	-0.800398	-0.800819	-0.0771023	2	-0.00155019	6.1745e-05
2	1	0	1	0	28.1307	-0.797399	-0.797842	-0.0752107	2	-0.00155245	6.00063e-05
2	1	0	1	0	28.1606	-0.794398	-0.794849	-0.0733621	2	-0.00155465	5.83118e-05
2	1	0	0	0	28.1905	-0.791402	-0.791848	-0.071726	2	-0.0015568	5.67961e-05
2	1	0	0	0	28.2205	-0.788403	-0.78886	-0.070048	2	-0.00155891	5.5258e-05
2	1	0	0	0	28.2505	-0.785404	-0.785854	-0.0684326	2	-0.00156096	5.3778e-05
2	1	0	0	0	28.2805	-0.782405	-0.782871	-0.0669031	2	-0.00156297	5.23765e-05
2	1	0	0	0	28.3105	-0.779406	-0.779866	-0.065431	2	-0.00156494	5.10274e-05
2	1	0	0	0	28.3405	-0.776407	-0.776863	-0.063991	2	-0.00156686	4.97122e-05
2	1	0	0	0	28.3705	-0.773408	-0.773857	-0.0626645	2	-0.00156874	4.84933e-05
2	1	0	0	0	28.4005	-0.770409	-0.770845	-0.0613579	2	-0.00157058	4.72974e-05
2	1	0	0	0	28.4305	-0.76741	-0.767868	-0.0601694	2	-0.00157238	4.62022e-05
2	1	0	0	0	28.4605	-0.764411	-0.764875	-0.0589042	2	-0.00157415	4.50544e-05
2	1	0	0	0	28.4905	-0.761412	-0.761857	-0.0577579	2	-0.00157588	4.40033e-05
2	1	0	0	0	28.5205	-0.758413	-0.758876	-0.0566332	2	-0.00157758	4.29776e-05
2	1	0	0	0	28.5505	-0.755414	-0.755873	-0.0555694	2	-0.00157924	4.20034e-05
2	1	0	0	0	28.5805	-0.752416	-0.752869	-0.0545947	2	-0.00158087	4.11027e-05
2	1	0	0	0	28.6105	-0.749417	-0.749862	-0.0535149	2	-0.00158247	4.01288e-05
2	1	0	0	0	28.6405	-0.746418	-0.746847	-0.052582	2	-0.00158405	3.92707e-05
2	1	0	0	0	28.6705	-0.743419	-0.74387	-0.0517087	2	-0.00158559	3.84646e-05
2	1	0	0	0	28.7005	-0.74042	-0.740876	-0.0508631	2	-0.00158711	3.76833e-05
2	1	0	1	0	28.7303	-0.737421	-0.737875	-0.0499977	2	-0.00158859	3.68921e-05
2	1	0	1	0	28.7603	-0.734422	-0.734893	-0.049263	2	-0.00159006	3.6203e-05
2	1	0	1	0	28.7903	-0.731423	-0.73189	-0.0485181	2	-0.00159151	3.55099e-05
2	1	0	1	0	28.8203	-0.728424	-0.728871	-0.0477572	2	-0.00159293	3.48089e-05
2	1	0	1	0	28.8503	-0.725425	-0.725869	-0.0470083	2	-0.00159433	3.41219e-05
2	1	0	0	0	28.9113	-0.719327	-0.719772	-0.0454926	2	-0.00159711	3.27443e-05
2	1	0	0	0	28.9413	-0.716328	-0.716779	-0.0448022	2	-0.00159846	3.21133e-05
2	1	0	0	0	28.9713	-0.713329	-0.713762	-0.0442463	2	-0.00159979	3.15814e-05
2	1	0	0	0	29.0013	-0.710331	-0.710755	-0.04364	2	-0.0016011	3.10174e-05
2	1	0	0	0	29.0313	-0.707332	-0.707771	-0.0431262	2	-0.00160239	3.05235e-05
2	1	0	0	0	29.0613	-0.704333	-0.704773	-0.0425979	2	-0.00160367	3.00219e-05
2	1	0	0	0	29.0913	-0.701334	-0.701769	-0.0420924	2	-0.00160493	2.95392e-05
2	1	0	0	0	29.1213	-0.698335	-0.698747	-0.0415639	2	-0.00160618	2.90427e-05
2	1	0	0	0	29.1513	-0.695336	-0.695776	-0.0411002	2	-0.00160741	2.85965e-05
2	1	0	0	0	29.1813	-0.692337	-0.692757	-0.0406618	2	-0.00160863	2.81688e-05
2	1	0	0	0	29.2113	-0.689338	-0.689766	-0.0402513	2	-0.00160984	2.7764e-05
2	1	0	0	0	29.2413	-0.686339	-0.686766	-0.0397999	2	-0.00161103	2.73332e-05
2	1	0	0	0	29.2713	-0.68334	-0.683774	-0.0393938	2	-0.00161221	2.69365e-05
2	1	0	1	0	29.3011	-0.680341	-0.680771	-0.0389638	2	-0.00161337	2.65254e-05
2	1	0	1	0	29.3311	-0.677342	-0.677781	-0.0386022	2	-0.00161453	2.61639e-05
2	1	0	1	0	29.3611	-0.674343	-0.674778	-0.0382354	2	-0.00161567	2.58004e-05
2	1	0	1	0	29.3911	-0.671345	-0.671768	-0.0378477	2	-0.00161681	2.54249e-05
2	1	0	1	0	29.4211	-0.668346	-0.668805	-0.0375459	2	-0.00161793	2.51109e-05
2	1	0	1	0	29.4511	-0.665347	-0.665774	-0.0371587	2	-0.00161904	2.47393e-05
2	1	0	1	0	29.4811	-0.662348	-0.662786	-0.0368366	2	-0.00162015	2.44148e-05
2	1	0	1	0	29.5111	-0.659349	-0.659782	-0.0365258	2	-0.00162124	2.40991e-05
2	1	0	1	0	29.5411	-0.65635	-0.656801	-0.036242	2	-0.00162232	2.38038e-05
2	1	0	1	0	29.5711	-0.653351	-0.653802	-0.0359526	2	-0.0016234	2.35059e-05
2	1	0	1	0	29.6011	-0.650352	-0.650792	-0.0356399	2	-0.00162446	2.31942e-05
2	1	0	1	0	29.6311	-0.647353	-0.647785	-0.0353307	2	-0.00162552	2.28867e-05
2	1	0	1	0	29.6611	-0.644354	-0.644777	-0.03501	2	-0.00162657	2.25736e-05
2	1	0	1	0	29.6911	-0.641355	-0.641771	-0.0347325	2	-0.00162761	2.22903e-05
2	1	0	1	0	29.7211	-0.638356	-0.638771	-0.0344898	2	-0.00162864	2.20311e-05
2	1	0	1	0	29.7511	-0.635357	-0.63579	-0.0341536	2	-0.00162966	2.17145e-05
2	1	0	1	0	29.7811	-0.632358	-0.632792	-0.0338705	2	-0.00163067	2.1433e-05
2	1	0	1	0	29.8111	-0.629359	-0.629805	-0.0336673	2	-0.00163168	2.12038e-05
2	1	0	1	0	29.841	-0.626354	-0.626806	-0.0333675	2	-0.00163267	2.09149e-05
2	1	0	0	0	29.8709	-0.623362	-0.623799	-0.0331236	2	-0.00163366	2.06624e-05
2	1	0	0	0	29.9009	-0.620363	-0.620802	-0.0328903	2	-0.00163464	2.04184e-05
2	1	0	0	0	29.9309	-0.617364	-0.617809	-0.032603	2	-0.00163562	2.01424e-05
2	1	0	0	0	29.9609	-0.614365	-0.614824	-0.0323426	2	-0.00163658	1.9885e-05
2	1	0	0	0	29.9909	-0.611366	-0.611792	-0.0320705	2	-0.00163754	1.96204e-05
2	1	0	0	0	30.0209	-0.608367	-0.608806	-0.0318552	2	-0.00163849	1.93936e-05
2	1	0	0	0	30.0509	-0.605368	-0.60581	-0.0315701	2	-0.00163944	1.91255e-05
2	1	0	0	0	30.0809	-0.602369	-0.602792	-0.0313021	2	-0.00164037	1.88687e-05
2	1	0	0	0	30.1109	-0.59937	-0.599807	-0.0310213	2	-0.0016413	1.86068e-05
2	1	0	0	0	30.1409	-0.596371	-0.596794	-0.0307785	2	-0.00164222	1.83684e-05
2	1	0	0	0	30.1709	-0.593372	-0.593809	-0.0305774	2	-0.00164313	1.81572e-05
2	1	0	0	0	30.2009	-0.590373	-0.590816	-0.0302781	2	-0.00164404	1.78888e-05
2	1	0	0	0	30.2309	-0.587375	-0.587811	-0.0300648	2	-0.00164494	1.76725e-05
2	1	0	0	0	30.2609	-0.584376	-0.584794	-0.0297974	2	-0.00164583	1.74254e-05
2	1	0	0	0	30.2909	-0.581377	-0.581808	-0.0295168	2	-0.00164671	1.71731e-05
2	1	0	0	0	30.3209	-0.578378	-0.578815	-0.0292383	2	-0.00164758	1.69236e-05
2	1	0	0	0	30.3509	-0.575379	-0.575826	-0.0290031	2	-0.00164845	1.67007e-05
2	1	0	0	0	30.3809	-0.57238	-0.572794	-0.0287122	2	-0.00164931	1.64462e-05
2	1	0	1	0	30.4107	-0.569381	-0.569821	-0.0284802	2	-0.00165015	1.62286e-05
2	1	0	1	0	30.4407	-0.566382	-0.566808	-0.0281678	2	-0.00165099	1.59657e-05
2	1	0	1	0	30.4707	-0.563383	-0.563804	-0.0279235	2	-0.00165183	1.57434e-05
2	1	0	1	0	30.5007	-0.560384	-0.560817	-0.0276786	2	-0.00165266	1.55227e-05
2	1	0	1	0	30.5307	-0.557385	-0.557822	-0.0274128	2	-0.00165348	1.52915e-05
2	1	0	1	0	30.5607	-0.554386	-0.554826	-0.0271556	2	-0.00165429	1.50666e-05
2	1	0	1	0	30.5907	-0.551387	-0.551829	-0.0269045	2	-0.00165509	1.48467e-05
2	1	0	1	0	30.6207	-0.548388	-0.548836	-0.0266047	2	-0.00165588	1.46016e-05
2	1	0	1	0	30.6507	-0.54539	-0.545814	-0.026284	2	-0.00165667	1.43462e-05
2	1	0	1	0	30.6807	-0.542391	-0.542837	-0.0260194	2	-0.00165745	1.41243e-05
2	1	0	1	0	30.7107	-0.539392	-0.539822	-0.025781	2	-0.00165822	1.39171e-05
2	1	0	1	0	30.7407	-0.536393	-0.536838	-0.0254826	2	-0.00165898	1.36801e-05
2	1	0	1	0	30.7707	-0.533394	-0.533833	-0.0252127	2	-0.00165973	1.34594e-05
2	1	0	1	0	30.8007	-0.530395	-0.530831	-0.0249131	2	-0.00166048	1.32246e-05
2	1	0	1	0	30.8307	-0.527396	-0.52782	-0.0246322	2	-0.00166121	1.30013e-05
2	1	0	1	0	30.8607	-0.524397	-0.524836	-0.0243641	2	-0.00166194	1.27872e-05
2	1	0	1	0	30.8907	-0.521398	-0.521829	-0.0240959	2	-0.00166266	1.25739e-05
2	1	0	1	0	30.9207	-0.518399	-0.518844	-0.0237808	2	-0.00166337	1.23385e-05
2	1	0	1	0	30.9507	-0.5154	-0.515839	-0.0234776	2	-0.00166407	1.21107e-05
2	1	0	0	0	30.9805	-0.512401	-0.512842	-0.0231571	2	-0.00166476	1.18759e-05
2	1	0	0	0	31.0105	-0.509402	-0.509836	-0.0228904	2	-0.00166544	1.16704e-05
2	1	0	0	0	31.0405	-0.506404	-0.506823	-0.0225516	2	-0.00166612	1.14296e-05
2	1	0	0	0	31.0705	-0.503405	-0.503844	-0.0222519	2	-0.00166678	1.12115e-05
2	1	0	0	0	31.1005	-0.500406	-0.500839	-0.0219881	2	-0.00166744	1.10125e-05
2	1	0	0	0	31.1305	-0.497407	-0.497846	-0.0216493	2	-0.00166808	1.0778e-05
2	1	0	0	0	31.1605	-0.494408	-0.494833	-0.0213771	2	-0.00166872	1.05781e-05
2	1	0	0	0	31.1905	-0.491409	-0.491822	-0.0210228	2	-0.00166935	1.03395e-05
2	1	0	0	0	31.2205	-0.48841	-0.48884	-0.0207383	2	-0.00166997	1.01377e-05
2	1	0	0	0	31.2505	-0.485411	-0.485843	-0.0204106	2	-0.00167058	9.91636e-06
2	1	0	0	0	31.2805	-0.482412	-0.48284	-0.0200742	2	-0.00167118	9.69261e-06
2	1	0	0	0	31.3105	-0.479413	-0.47986	-0.0197087	2	-0.00167176	9.4574e-06
2	1	0	0	0	31.3405	-0.476414	-0.476853	-0.0193156	2	-0.00167234	9.2107e-06
2	1	0	0	0	31.3705	-0.473415	-0.473841	-0.0190419	2	-0.00167291	9.02281e-06
2	1	0	0	0	31.4005	-0.470416	-0.470841	-0.0186697	2	-0.00167347	8.79046e-06
2	1	0	0	0	31.4305	-0.467417	-0.467855	-0.0183735	2	-0.00167402	8.59615e-06
2	1	0	0	0	31.4605	-0.464418	-0.464855	-0.0179963	2	-0.00167456	8.36568e-06
2	1	0	0	0	31.4905	-0.461419	-0.461873	-0.0176188	2	-0.00167508	8.13764e-06
2	1	0	0	0	31.5204	-0.458412	-0.458852	-0.0171992	2	-0.0016756	7.89187e-06
2	1	0	1	0	31.5503	-0.455422	-0.45584	-0.0168754	2	-0.0016761	7.69247e-06
2	1	0	1	0	31.5803	-0.452423	-0.452857	-0.0165387	2	-0.00167659	7.48967e-06
2	1	0	1	0	31.6103	-0.449424	-0.449845	-0.0161176	2	-0.00167708	7.25042e-06
2	1	0	1	0	31.6403	-0.446425	-0.446857	-0.0157441	2	-0.00167755	7.03538e-06
2	1	0	1	0	31.6703	-0.443426	-0.443855	-0.0153609	2	-0.00167801	6.81802e-06
2	1	0	1	0	31.7003	-0.440427	-0.440851	-0.0149986	2	-0.00167845	6.61215e-06
2	1	0	1	0	31.7303	-0.437428	-0.43786	-0.0145763	2	-0.00167889	6.38238e-06
2	1	0	1	0	31.7603	-0.434429	-0.434853	-0.0141762	2	-0.00167931	6.16457e-06
2	1	0	1	0	31.7903	-0.43143	-0.431878	-0.0137748	2	-0.00167972	5.94904e-06
2	1	0	1	0	31.8203	-0.428431	-0.42887	-0.0133971	2	-0.00168012	5.74561e-06
2	1	0	1	0	31.8503	-0.425432	-0.425874	-0.0129571	2	-0.00168051	5.51808e-06
2	1	0	1	0	31.8803	-0.422433	-0.422883	-0.0125589	2	-0.00168089	5.31092e-06
2	1	0	1	0	31.9103	-0.419434	-0.419861	-0.0121199	2	-0.00168125	5.08866e-06
2	1	0	1	0	31.9403	-0.416436	-0.416853	-0.0117065	2	-0.0016816	4.8799e-06
2	1	0	1	0	31.9703	-0.413437	-0.41387	-0.0113003	2	-0.00168193	4.67687e-06
2	1	0	1	0	32.0003	-0.410438	-0.410874	-0.0108511	2	-0.00168226	4.45842e-06
2	1	0	1	0	32.0303	-0.407439	-0.407847	-0.0104134	2	-0.00168257	4.24708e-06
2	1	0	1	0	32.0603	-0.40444	-0.404855	-0.0100264	2	-0.00168287	4.05924e-06
2	1	0	0	0	32.0901	-0.401441	-0.401866	-0.00960534	2	-0.00168315	3.86005e-06
2	1	0	0	0	32.1201	-0.398442	-0.398867	-0.00911178	2	-0.00168343	3.63439e-06
2	1	0	0	0	32.1501	-0.395443	-0.395863	-0.00869713	2	-0.00168369	3.44287e-06
2	1	0	0	0	32.1801	-0.392444	-0.392854	-0.0082933	2	-0.00168394	3.25806e-06
2	1	0	0	0	32.2101	-0.389445	-0.389874	-0.00789214	2	-0.00168417	3.07694e-06
2	1	0	0	0	32.2401	-0.386446	-0.386882	-0.007486	2	-0.00168439	2.8962e-06
2	1	0	0	0	32.2701	-0.383447	-0.383886	-0.00704289	2	-0.0016846	2.70367e-06
2	1	0	0	0	32.3001	-0.380448	-0.380876	-0.00662709	2	-0.0016848	2.5241e-06
2	1	0	0	0	32.3301	-0.37745	-0.377869	-0.00619485	2	-0.00168498	2.34084e-06
2	1	0	0	0	32.3601	-0.374451	-0.374883	-0.00578306	2	-0.00168516	2.16797e-06
2	1	0	0	0	32.3901	-0.371452	-0.371884	-0.00535611	2	-0.00168532	1.99185e-06
2	1	0	0	0	32.4201	-0.368453	-0.368879	-0.00493591	2	-0.00168546	1.82076e-06
2	1	0	0	0	32.4501	-0.365454	-0.365863	-0.00449329	2	-0.0016856	1.64393e-06
2	1	0	0	0	32.4801	-0.362455	-0.36287	-0.00414687	2	-0.00168572	1.50478e-06
2	1	0	1	0	32.5411	-0.356357	-0.356771	-0.0030488	2	-0.00168592	1.08772e-06
2	1	0	1	0	32.5711	-0.353358	-0.353765	-0.00263114	2	-0.00168601	9.30805e-07
2	1	0	1	0	32.6011	-0.350359	-0.350783	-0.0022492	2	-0.00168608	7.88981e-07
2	1	0	1	0	32.6311	-0.34736	-0.347771	-0.00183067	2	-0.00168614	6.36656e-07
2	1	0	0	0	32.6609	-0.344361	-0.344789	-0.00142477	2	-0.00168619	4.91246e-07
2	1	0	0	0	32.6909	-0.341362	-0.341772	-0.00101877	2	-0.00168623	3.48186e-07
2	1	0	0	0	32.7209	-0.338363	-0.338751	-0.000626614	2	-0.00168625	2.12266e-07
2	1	0	0	0	32.7509	-0.335365	-0.335776	-0.000212142	2	-0.00168626	7.12323e-08
2	1	0	0	0	32.7809	-0.332366	-0.332774	0.000181858	2	-0.00168626	6.05177e-08
2	1	0	0	0	32.8109	-0.329367	-0.329771	0.000578633	2	-0.00168625	1.90817e-07
2	1	0	0	0	32.8409	-0.326368	-0.326784	0.0009795	2	-0.00168623	3.20084e-07
2	1	0	0	0	32.8709	-0.323369	-0.32378	0.00138915	2	-0.00168619	4.49778e-07
2	1	0	0	0	32.9009	-0.32037	-0.320778	0.00179938	2	-0.00168614	5.77201e-07
2	1	0	0	0	32.9309	-0.317371	-0.317764	0.00221075	2	-0.00168608	7.02496e-07
2	1	0	0	0	32.9609	-0.314372	-0.314778	0.0026152	2	-0.00168601	8.23207e-07
2	1	0	0	0	32.9909	-0.311373	-0.311793	0.00302415	2	-0.00168592	9.42908e-07
2	1	0	0	0	33.0209	-0.308374	-0.308775	0.00345248	2	-0.00168583	1.06604e-06
2	1	0	0	0	33.0509	-0.305375	-0.305791	0.00387233	2	-0.00168572	1.18412e-06
2	1	0	0	0	33.0809	-0.302376	-0.30277	0.00431296	2	-0.00168559	1.30583e-06
2	1	0	0	0	33.1109	-0.299377	-0.299767	0.00473281	2	-0.00168546	1.41874e-06
2	1	0	0	0	33.1409	-0.296378	-0.29677	0.00518047	2	-0.00168531	1.53741e-06
2	1	0	0	0	33.1709	-0.29338	-0.293788	0.00561484	2	-0.00168515	1.64957e-06
2	1	0	1	0	33.2007	-0.290381	-0.290766	0.00611002	2	-0.00168497	1.77659e-06
2	1	0	1	0	33.2307	-0.287382	-0.28776	0.00655282	2	-0.00168478	1.88564e-06
2	1	0	1	0	33.2607	-0.284383	-0.284772	0.00699901	2	-0.00168458	1.99312e-06
2	1	0	1	0	33.2907	-0.281384	-0.281769	0.0074833	2	-0.00168436	2.10856e-06
2	1	0	1	0	33.3207	-0.278385	-0.278765	0.00796428	2	-0.00168413	2.22016e-06
2	1	0	1	0	33.3507	-0.275386	-0.275775	0.00845627	2	-0.00168388	2.33203e-06
2	1	0	1	0	33.3807	-0.272387	-0.272761	0.0089597	2	-0.00168362	2.44386e-06
2	1	0	1	0	33.4107	-0.269388	-0.269758	0.00949272	2	-0.00168334	2.56074e-06
2	1	0	1	0	33.4407	-0.266389	-0.266767	0.0100163	2	-0.00168305	2.67203e-06
2	1	0	0	0	33.5017	-0.260291	-0.260712	0.01088	2	-0.00168241	2.83654e-06
2	1	0	0	0	33.5317	-0.257292	-0.257689	0.0114458	2	-0.00168207	2.94946e-06
2	1	0	0	0	33.5617	-0.254294	-0.254709	0.0119834	2	-0.00168171	3.05229e-06
2	1	0	0	0	33.5917	-0.251295	-0.251707	0.0125673	2	-0.00168134	3.16328e-06
2	1	0	0	0	33.6217	-0.248296	-0.24872	0.013145	2	-0.00168094	3.26943e-06
2	1	0	0	0	33.6517	-0.245297	-0.245715	0.0136885	2	-0.00168053	3.36348e-06
2	1	0	0	0	33.6817	-0.242298	-0.24273	0.0143301	2	-0.00168011	3.47834e-06
2	1	0	0	0	33.7117	-0.239299	-0.239728	0.0149007	2	-0.00167966	3.57212e-06
2	1	0	0	0	33.7417	-0.2363	-0.236724	0.0155181	2	-0.0016792	3.67351e-06
2	1	0	1	0	33.7715	-0.233301	-0.233703	0.0160915	2	-0.00167872	3.76064e-06
2	1	0	1	0	33.8015	-0.230302	-0.230717	0.0167231	2	-0.00167821	3.85832e-06
2	1	0	1	0	33.8315	-0.227303	-0.227718	0.0173351	2	-0.0016777	3.94752e-06
2	1	0	1	0	33.8615	-0.224304	-0.224724	0.0179489	2	-0.00167716	4.03355e-06
2	1	0	1	0	33.8915	-0.221305	-0.221733	0.0185576	2	-0.0016766	4.11483e-06
2	1	0	1	0	33.9215	-0.218306	-0.218724	0.0192046	2	-0.00167603	4.20051e-06
2	1	0	1	0	33.9515	-0.215307	-0.21573	0.0198319	2	-0.00167544	4.27833e-06
2	1	0	1	0	33.9815	-0.212309	-0.212725	0.0204447	2	-0.00167482	4.34909e-06
2	1	0	1	0	34.0115	-0.20931	-0.209743	0.0209859	2	-0.00167419	4.40164e-06
2	1	0	1	0	34.0415	-0.206311	-0.206746	0.0216206	2	-0.00167355	4.46998e-06
2	1	0	1	0	34.0715	-0.203312	-0.203742	0.0221887	2	-0.00167288	4.52078e-06
2	1	0	1	0	34.1015	-0.200313	-0.200724	0.0227647	2	-0.0016722	4.56941e-06
2	1	0	1	0	34.1315	-0.197314	-0.197728	0.023329	2	-0.0016715	4.61279e-06
2	1	0	1	0	34.1615	-0.194315	-0.19472	0.0238846	2	-0.00167078	4.65081e-06
2	1	0	1	0	34.1915	-0.191316	-0.191728	0.024442	2	-0.00167005	4.68622e-06
2	1	0	1	0	34.2215	-0.188317	-0.188722	0.0250243	2	-0.0016693	4.72265e-06
2	1	0	1	0	34.2515	-0.185318	-0.185725	0.025494	2	-0.00166853	4.73486e-06
2	1	0	1	0	34.2815	-0.182319	-0.182725	0.025992	2	-0.00166775	4.7494e-06
2	1	0	1	0	34.3114	-0.179329	-0.17973	0.0265409	2	-0.00166696	4.7702e-06
2	1	0	0	0	34.3413	-0.176321	-0.176751	0.0269152	2	-0.00166616	4.75729e-06
2	1	0	0	0	34.3713	-0.173322	-0.173739	0.0273337	2	-0.00166533	4.74894e-06
2	1	0	0	0	34.4013	-0.170324	-0.170731	0.0277331	2	-0.0016645	4.7349e-06
2	1	0	0	0	34.4313	-0.167325	-0.167727	0.0281522	2	-0.00166365	4.72189e-06
2	1	0	0	0	34.4613	-0.164326	-0.164736	0.0284458	2	-0.0016628	4.68604e-06
2	1	0	0	0	34.4913	-0.161327	-0.161705	0.0287362	2	-0.00166193	4.64679e-06
2	1	0	0	0	34.5213	-0.158328	-0.158727	0.0289728	2	-0.00166106	4.59877e-06
2	1	0	0	0	34.5513	-0.155329	-0.155734	0.0292308	2	-0.00166018	4.55222e-06
2	1	0	0	0	34.5813	-0.15233	-0.152728	0.0293984	2	-0.00165929	4.48995e-06
2	1	0	0	0	34.6113	-0.149331	-0.149746	0.0295488	2	-0.0016584	4.42482e-06
2	1	0	0	0	34.6413	-0.146332	-0.146731	0.0296473	2	-0.0016575	4.35017e-06
2	1	0	0	0	34.6713	-0.143333	-0.143742	0.0296536	2	-0.0016566	4.26246e-06
2	1	0	0	0	34.7013	-0.140334	-0.140744	0.0296972	2	-0.0016557	4.17969e-06
2	1	0	0	0	34.7313	-0.137335	-0.137732	0.0296561	2	-0.00165481	4.08459e-06
2	1	0	0	0	34.7613	-0.134336	-0.13472	0.029576	2	-0.00165391	3.98448e-06
2	1	0	0	0	34.7913	-0.131337	-0.131739	0.0294676	2	-0.00165302	3.88204e-06
2	1	0	0	0	34.8213	-0.128339	-0.128744	0.0293061	2	-0.00165213	3.773e-06
2	1	0	0	0	34.8513	-0.12534	-0.125747	0.029117	2	-0.00165124	3.66136e-06
2	1	0	1	0	34.8811	-0.122341	-0.122753	0.0289025	2	-0.00165037	3.54788e-06
2	1	0	1	0	34.9111	-0.119342	-0.119737	0.0286083	2	-0.0016495	3.42549e-06
2	1	0	1	0	34.9411	-0.116343	-0.116749	0.0283199	2	-0.00164864	3.30631e-06
2	1	0	1	0	34.9711	-0.113344	-0.11374	0.0279939	2	-0.00164779	3.18402e-06
2	1	0	1	0	35.0011	-0.110345	-0.110738	0.0276632	2	-0.00164694	3.06335e-06
2	1	0	1	0	35.0311	-0.107346	-0.107744	0.0272731	2	-0.00164611	2.9385e-06
2	1	0	1	0	35.0611	-0.104347	-0.104756	0.0268733	2	-0.00164529	2.81515e-06
2	1	0	1	0	35.0911	-0.101348	-0.101735	0.0264493	2	-0.00164448	2.69082e-06
2	1	0	1	0	35.1211	-0.0983493	-0.0987615	0.0260476	2	-0.00164369	2.5725e-06
2	1	0	1	0	35.1511	-0.0953503	-0.0957412	0.0256219	2	-0.00164291	2.45307e-06
2	1	0	1	0	35.1811	-0.0923514	-0.0927404	0.0251821	2	-0.00164214	2.33539e-06
2	1	0	1	0	35.2111	-0.0893525	-0.0897482	0.024751	2	-0.00164138	2.22136e-06
2	1	0	1	0	35.2411	-0.0863535	-0.0867442	0.0243041	2	-0.00164064	2.10824e-06
2	1	0	1	0	35.2711	-0.0833546	-0.0837406	0.0238818	2	-0.00163991	1.99987e-06
2	1	0	1	0	35.3011	-0.0803557	-0.0807449	0.0234121	2	-0.00163919	1.89041e-06
2	1	0	1	0	35.3311	-0.0773567	-0.0777574	0.0230126	2	-0.00163848	1.7894e-06
2	1	0	1	0	35.3611	-0.0743578	-0.0747651	0.0225515	2	-0.00163779	1.68607e-06
2	1	0	1	0	35.3911	-0.0713589	-0.0717545	0.0221646	2	-0.00163712	1.59041e-06
2	1	0	1	0	35.4211	-0.06836	-0.0687622	0.0217331	2	-0.00163645	1.49441e-06
2	1	0	0	0	35.4509	-0.065361	-0.0657527	0.0213376	2	-0.0016358	1.403e-06
2	1	0	0	0	35.4809	-0.0623621	-0.0627758	0.0209662	2	-0.00163516	1.31617e-06
2	1	0	0	0	35.5109	-0.0593632	-0.0597461	0.0206035	2	-0.00163453	1.23098e-06
2	1	0	0	0	35.5409	-0.0563642	-0.0567549	0.0202121	2	-0.00163391	1.14713e-06
2	1	0	0	0	35.5709	-0.0533653	-0.0537782	0.0198956	2	-0.0016333	1.06995e-06
2	1	0	0	0	35.6009	-0.0503664	-0.0507628	0.0195926	2	-0.0016327	9.94574e-07
2	1	0	0	0	35.6309	-0.0473675	-0.0477581	0.0192747	2	-0.00163211	9.20522e-07
2	1	0	0	0	35.6609	-0.0443685	-0.0447783	0.0189608	2	-0.00163153	8.49032e-07
2	1	0	0	0	35.6909	-0.0413696	-0.0417715	0.0186587	2	-0.00163096	7.79403e-07
2	1	0	0	0	35.7209	-0.0383707	-0.0387616	0.0184077	2	-0.00163039	7.13513e-07
2	1	0	0	0	35.7509	-0.0353718	-0.0357639	0.0181235	2	-0.00162984	6.48168e-07
2	1	0	0	0	35.7809	-0.0323728	-0.0327676	0.0178773	2	-0.00162929	5.85796e-07
2	1	0	0	0	35.8109	-0.0293739	-0.0297784	0.017642	2	-0.00162875	5.2535e-07
2	1	0	0	0	35.8409	-0.026375	-0.0267564	0.0174574	2	-0.00162821	4.67097e-07
2	1	0	0	0	35.8709	-0.023376	-0.0237715	0.0172357	2	-0.00162769	4.09718e-07
2	1	0	0	0	35.9009	-0.0203771	-0.0207702	0.0170281	2	-0.00162716	3.53677e-07
2	1	0	0	0	35.9309	-0.0173782	-0.0177921	0.0168374	2	-0.00162665	2.99573e-07
2	1	0	0	0	35.9609	-0.0143793	-0.0147654	0.0167125	2	-0.00162614	2.46767e-07
2	1	0	0	0	35.9908	-0.0113871	-0.011774	0.016648	2	-0.00162563	1.96014e-07
2	1	0	1	0	35.9967	-0.0107805	-0.0111639	0.0166033	2	-0.00162553	1.85357e-07