File: TAP_Report/Data/Res_growth/mg4_3_2.mpt
EC-Lab ASCII FILE
Nb header lines : 54

Cyclic Voltammetry

Run on channel : 1 (SN 0696)
User :
Electrode connection : standard
Ewe ctrl range : min = -2.50 V, max = 2.50 V
Ewe,I filtering : 50 kHz
Channel : Grounded
Acquisition started on : 01/18/2017 14:52:34
Saved on :
	File : mg4_3.mpr
	Directory : H:\EC-Lab\Data\Resazurin Bulk 18-1-17\
	Host : 144.32.136.43
Device : SP-300 (SN 0182)
Address : USB
EC-Lab for windows v10.44 (software)
Internet server v10.44 (firmware)
Command interpretor v10.44 (firmware)
Electrode material :
Initial state :
Electrolyte :
Comments :
Cable : standard
Reference electrode : SCE Saturated Calomel Electrode (0.241 V)
Electrode surface area : 0.001 cm²
Characteristic mass : 0.001 g
Equivalent Weight : 0.000 g/eq.
Density : 0.000 g/cm3
Ei (V)              0.000
vs.                 Eoc
dE/dt               100.000
dE/dt unit          mV/s
E1 (V)              0.000
vs.                 Ref
Step percent        50
N                   10
E range min (V)     -2.500
E range max (V)     2.500
I Range             Auto
I Range min         Unset
I Range max         Unset
I Range init        Unset
Bandwidth           8
E2 (V)              -0.900
vs.                 Ref
nc cycles           2
Reverse Scan        1
Ef (V)              0.000
vs.                 Eoc

mode	ox/red	error	control changes	counter inc.	time/s	control/V	Ewe/V	<I>/mA	cycle number	(Q-Qo)/C	P/W
2	1	0	0	1	17.9966	-0.0246256	-0.0254412	0.0109854	2	-0.000903029	2.79483e-07
2	1	0	1	1	18.0221	-0.0220765	-0.0228496	0.0109294	2	-0.000902743	2.49733e-07
2	1	0	1	1	18.0521	-0.0190776	-0.0198572	0.0108818	2	-0.000902409	2.16083e-07
2	1	0	1	1	18.0821	-0.0160786	-0.0168674	0.0107939	2	-0.000902077	1.82065e-07
2	1	0	1	1	18.1121	-0.0130797	-0.013859	0.0107094	2	-0.000901746	1.48421e-07
2	1	0	1	1	18.1421	-0.0100808	-0.0108493	0.0106753	2	-0.000901417	1.15819e-07
2	1	0	1	1	18.1721	-0.00708186	-0.00786264	0.0106664	2	-0.000901089	8.38659e-08
2	1	0	1	1	18.2021	-0.00408293	-0.00485738	0.0106314	2	-0.000900763	5.16408e-08
2	1	0	1	1	18.2321	-0.001084	-0.00186818	0.0105669	2	-0.000900437	1.9741e-08
2	0	0	0	1	18.2487	-0.000584183	-0.00142667	0.00849635	2	-0.000900271	1.21214e-08
2	0	0	0	1	18.2787	-0.00358311	-0.0044133	0.0069234	2	-0.000900052	3.05551e-08
2	0	0	0	1	18.3087	-0.00658204	-0.0074315	0.00603688	2	-0.000899865	4.48631e-08
2	0	0	0	1	18.3387	-0.00958097	-0.0104166	0.00545466	2	-0.000899701	5.68192e-08
2	0	0	0	1	18.3687	-0.0125799	-0.0134404	0.00491263	2	-0.000899553	6.60275e-08
2	0	0	0	1	18.3987	-0.0155788	-0.0164322	0.00440549	2	-0.000899421	7.23921e-08
2	0	0	1	1	18.4597	-0.0216766	-0.0225242	0.00340963	2	-0.000899199	7.67992e-08
2	0	0	1	1	18.4896	-0.0246688	-0.0255084	0.00307125	2	-0.000899102	7.83425e-08
2	0	0	0	1	18.5195	-0.0276745	-0.0285172	0.0027601	2	-0.000899015	7.87104e-08
2	0	0	0	1	18.5495	-0.0306734	-0.0315193	0.00249463	2	-0.000898937	7.86289e-08
2	0	0	0	1	18.5795	-0.0336724	-0.0345144	0.00221856	2	-0.000898867	7.65722e-08
2	0	0	0	1	18.6095	-0.0366713	-0.0375165	0.0019714	2	-0.000898804	7.39599e-08
2	0	0	0	1	18.6395	-0.0396702	-0.0405283	0.00175546	2	-0.000898748	7.11457e-08
2	0	0	0	1	18.6695	-0.0426691	-0.0435319	0.00153604	2	-0.000898699	6.68668e-08
2	0	0	0	1	18.6995	-0.0456681	-0.0465147	0.00135103	2	-0.000898656	6.28426e-08
2	0	0	0	1	18.7295	-0.048667	-0.0495202	0.00115875	2	-0.000898619	5.73817e-08
2	0	0	0	1	18.7595	-0.0516659	-0.0525011	0.000976973	2	-0.000898587	5.12921e-08
2	0	0	0	1	18.7895	-0.0546649	-0.0555091	0.000806116	2	-0.00089856	4.47468e-08
2	0	0	0	1	18.8195	-0.0576638	-0.0584851	0.000650014	2	-0.000898539	3.80161e-08
2	0	0	0	1	18.8495	-0.0606627	-0.0614993	0.000482011	2	-0.000898522	2.96433e-08
2	0	0	0	1	18.8795	-0.0636616	-0.0645063	0.000326883	2	-0.000898511	2.1086e-08
2	0	0	0	1	18.9095	-0.0666606	-0.0675204	0.000187242	2	-0.000898503	1.26427e-08
2	0	0	0	1	18.9395	-0.0696595	-0.070503	5.12379e-05	2	-0.0008985	3.61243e-09
2	0	0	0	1	18.9695	-0.0726584	-0.0734956	-9.25668e-05	2	-0.0008985	6.80325e-09
2	0	0	0	1	18.9995	-0.0756574	-0.0764993	-0.000203438	2	-0.000898505	1.55629e-08
2	0	0	0	1	19.0295	-0.0786563	-0.0794936	-0.00034866	2	-0.000898514	2.77163e-08
2	0	0	1	1	19.0593	-0.0816552	-0.0825029	-0.00045028	2	-0.000898526	3.71495e-08
2	0	0	1	1	19.0893	-0.0846541	-0.0854999	-0.000591651	2	-0.000898542	5.05861e-08
2	0	0	1	1	19.1193	-0.0876531	-0.0884867	-0.000701172	2	-0.000898562	6.20444e-08
2	0	0	1	1	19.1493	-0.090652	-0.0915022	-0.00080281	2	-0.000898584	7.34589e-08
2	0	0	1	1	19.1793	-0.0936509	-0.0945081	-0.000927684	2	-0.000898611	8.76737e-08
2	0	0	1	1	19.2093	-0.0966498	-0.0975132	-0.00103273	2	-0.00089864	1.00705e-07
2	0	0	1	1	19.2393	-0.0996488	-0.100512	-0.0011375	2	-0.000898673	1.14332e-07
2	0	0	1	1	19.2693	-0.102648	-0.103505	-0.00124938	2	-0.000898709	1.29318e-07
2	0	0	1	1	19.2993	-0.105647	-0.106504	-0.00134789	2	-0.000898748	1.43555e-07
2	0	0	1	1	19.3293	-0.108646	-0.109501	-0.00145401	2	-0.000898791	1.59216e-07
2	0	0	1	1	19.3593	-0.111644	-0.112504	-0.00156465	2	-0.000898836	1.7603e-07
2	0	0	1	1	19.3893	-0.114643	-0.115516	-0.00164611	2	-0.000898885	1.90152e-07
2	0	0	1	1	19.4193	-0.117642	-0.118516	-0.00176416	2	-0.000898936	2.09082e-07
2	0	0	1	1	19.4493	-0.120641	-0.121488	-0.00185935	2	-0.000898991	2.2589e-07
2	0	0	1	1	19.4793	-0.12364	-0.124494	-0.00196643	2	-0.000899048	2.44808e-07
2	0	0	1	1	19.5093	-0.126639	-0.127497	-0.00206749	2	-0.000899109	2.63598e-07
2	0	0	1	1	19.5393	-0.129638	-0.130491	-0.00216419	2	-0.000899173	2.82408e-07
2	0	0	1	1	19.5693	-0.132637	-0.133492	-0.00227354	2	-0.00089924	3.03499e-07
2	0	0	1	1	19.5993	-0.135636	-0.136483	-0.00238891	2	-0.00089931	3.26046e-07
2	0	0	0	1	19.6291	-0.138635	-0.139488	-0.00250027	2	-0.000899383	3.48758e-07
2	0	0	0	1	19.6591	-0.141634	-0.142494	-0.00260776	2	-0.00089946	3.71591e-07
2	0	0	0	1	19.6891	-0.144633	-0.145496	-0.0027193	2	-0.00089954	3.95648e-07
2	0	0	0	1	19.7191	-0.147632	-0.14849	-0.00281757	2	-0.000899623	4.18381e-07
2	0	0	0	1	19.7491	-0.150631	-0.151483	-0.00295415	2	-0.00089971	4.47505e-07
2	0	0	0	1	19.7791	-0.153629	-0.154486	-0.00306007	2	-0.000899801	4.72737e-07
2	0	0	0	1	19.8091	-0.156628	-0.157488	-0.00318205	2	-0.000899895	5.01134e-07
2	0	0	0	1	19.8391	-0.159627	-0.160468	-0.00330768	2	-0.000899992	5.30775e-07
2	0	0	0	1	19.8691	-0.162626	-0.163468	-0.00343726	2	-0.000900094	5.61883e-07
2	0	0	0	1	19.8991	-0.165625	-0.166486	-0.00355952	2	-0.000900199	5.92612e-07
2	0	0	0	1	19.9291	-0.168624	-0.16949	-0.00372415	2	-0.000900309	6.31205e-07
2	0	0	0	1	19.9591	-0.171623	-0.172475	-0.00385313	2	-0.000900423	6.6457e-07
2	0	0	0	1	19.9891	-0.174622	-0.175488	-0.00402128	2	-0.000900541	7.05687e-07
2	0	0	0	1	20.0191	-0.177621	-0.178475	-0.004162	2	-0.000900664	7.42815e-07
2	0	0	0	1	20.0491	-0.18062	-0.181476	-0.00433085	2	-0.000900792	7.85945e-07
2	0	0	0	1	20.0791	-0.183619	-0.184472	-0.00451341	2	-0.000900925	8.32596e-07
2	0	0	0	1	20.1091	-0.186618	-0.187469	-0.00469008	2	-0.000901063	8.79245e-07
2	0	0	0	1	20.1391	-0.189617	-0.190478	-0.00486611	2	-0.000901206	9.26887e-07
2	0	0	0	1	20.169	-0.192609	-0.193474	-0.00506985	2	-0.000901355	9.80883e-07
2	0	0	1	1	20.1989	-0.195614	-0.19647	-0.00527408	2	-0.00090151	1.0362e-06
2	0	0	1	1	20.2289	-0.198613	-0.199453	-0.00548703	2	-0.000901672	1.09441e-06
2	0	0	1	1	20.2589	-0.201612	-0.202484	-0.00572305	2	-0.00090184	1.15882e-06
2	0	0	1	1	20.2889	-0.204611	-0.205458	-0.00595256	2	-0.000902016	1.223e-06
2	0	0	1	1	20.3189	-0.20761	-0.208457	-0.0062094	2	-0.000902198	1.29439e-06
2	0	0	1	1	20.3489	-0.210609	-0.211461	-0.00645776	2	-0.000902389	1.36557e-06
2	0	0	1	1	20.3789	-0.213608	-0.214475	-0.00674746	2	-0.000902587	1.44716e-06
2	0	0	1	1	20.4089	-0.216607	-0.217483	-0.00703396	2	-0.000902794	1.52977e-06
2	0	0	1	1	20.4389	-0.219606	-0.220488	-0.00733879	2	-0.000903009	1.61811e-06
2	0	0	1	1	20.4689	-0.222605	-0.223475	-0.0076298	2	-0.000903234	1.70507e-06
2	0	0	1	1	20.4989	-0.225604	-0.226495	-0.00797919	2	-0.000903469	1.80724e-06
2	0	0	1	1	20.5289	-0.228603	-0.229488	-0.00831687	2	-0.000903713	1.90862e-06
2	0	0	1	1	20.5589	-0.231602	-0.232493	-0.00867358	2	-0.000903968	2.01655e-06
2	0	0	1	1	20.5889	-0.234601	-0.235502	-0.00904805	2	-0.000904234	2.13083e-06
2	0	0	1	1	20.6189	-0.237599	-0.238471	-0.00941146	2	-0.000904511	2.24436e-06
2	0	0	1	1	20.6489	-0.240598	-0.241472	-0.00980624	2	-0.0009048	2.36794e-06
2	0	0	1	1	20.6944	-0.245147	-0.246041	-0.0103284	2	-0.000905261	2.54121e-06
2	0	0	1	1	20.7397	-0.249695	-0.25055	-0.0108117	2	-0.000905744	2.70888e-06
2	0	0	1	1	20.7697	-0.252694	-0.253556	-0.0112757	2	-0.000906082	2.85901e-06
2	0	0	1	1	20.7997	-0.255693	-0.256568	-0.0117079	2	-0.000906434	3.00387e-06
2	0	0	1	1	20.8297	-0.258692	-0.259548	-0.0121328	2	-0.000906799	3.14905e-06
2	0	0	1	1	20.8597	-0.261691	-0.262548	-0.0125814	2	-0.000907178	3.30322e-06
2	0	0	1	1	20.8897	-0.26469	-0.265532	-0.0130339	2	-0.00090757	3.46092e-06
2	0	0	1	1	20.9197	-0.267689	-0.26856	-0.0135793	2	-0.000907976	3.64685e-06
2	0	0	1	1	20.9497	-0.270688	-0.271566	-0.0139581	2	-0.000908395	3.79055e-06
2	0	0	1	1	20.9797	-0.273687	-0.274566	-0.0144472	2	-0.000908829	3.96671e-06
2	0	0	1	1	21.0097	-0.276686	-0.27755	-0.0148645	2	-0.000909276	4.12565e-06
2	0	0	1	1	21.0397	-0.279684	-0.280535	-0.0153438	2	-0.000909738	4.30448e-06
2	0	0	1	1	21.0697	-0.282683	-0.283533	-0.015826	2	-0.000910214	4.4872e-06
2	0	0	1	1	21.0997	-0.285682	-0.286549	-0.0163005	2	-0.000910703	4.67089e-06
2	0	0	1	1	21.1297	-0.288681	-0.289512	-0.016758	2	-0.000911207	4.85163e-06
2	0	0	1	1	21.1597	-0.29168	-0.292537	-0.0172358	2	-0.000911725	5.04212e-06
2	0	0	1	1	21.1897	-0.294679	-0.29553	-0.0177178	2	-0.000912257	5.23613e-06
2	0	0	1	1	21.2197	-0.297678	-0.298544	-0.018205	2	-0.000912803	5.43501e-06
2	0	0	1	1	21.2497	-0.300677	-0.30153	-0.018659	2	-0.000913363	5.62624e-06
2	0	0	1	1	21.2797	-0.303676	-0.304543	-0.0191321	2	-0.000913937	5.82656e-06
2	0	0	0	1	21.3095	-0.306675	-0.307553	-0.0196228	2	-0.000914522	6.03505e-06
2	0	0	0	1	21.3395	-0.309674	-0.310548	-0.020084	2	-0.000915125	6.23705e-06
2	0	0	0	1	21.3695	-0.312673	-0.313536	-0.0205368	2	-0.000915741	6.43904e-06
2	0	0	0	1	21.3995	-0.315672	-0.316542	-0.0210369	2	-0.000916372	6.65907e-06
2	0	0	0	1	21.4295	-0.318671	-0.319544	-0.0215082	2	-0.000917017	6.87282e-06
2	0	0	0	1	21.4595	-0.321669	-0.322549	-0.0219741	2	-0.000917677	7.08772e-06
2	0	0	0	1	21.4895	-0.324668	-0.325532	-0.0223966	2	-0.00091835	7.29079e-06
2	0	0	0	1	21.5195	-0.327667	-0.328532	-0.0229478	2	-0.000919038	7.53909e-06
2	0	0	0	1	21.5495	-0.330666	-0.331536	-0.023417	2	-0.00091974	7.76357e-06
2	0	0	0	1	21.5795	-0.333665	-0.334529	-0.0239249	2	-0.000920457	8.00358e-06
2	0	0	0	1	21.6095	-0.336664	-0.337524	-0.0243548	2	-0.000921188	8.22032e-06
2	0	0	0	1	21.6395	-0.339663	-0.340524	-0.0248425	2	-0.000921933	8.45946e-06
2	0	0	0	1	21.6695	-0.342662	-0.343523	-0.0253406	2	-0.000922694	8.70508e-06
2	0	0	0	1	21.6995	-0.345661	-0.346527	-0.0258231	2	-0.000923469	8.9484e-06
2	0	0	0	1	21.7295	-0.34866	-0.349541	-0.0263746	2	-0.000924259	9.219e-06
2	0	0	0	1	21.7595	-0.351659	-0.352526	-0.0268413	2	-0.000925065	9.46226e-06
2	0	0	0	1	21.7895	-0.354658	-0.355534	-0.0273373	2	-0.000925886	9.71934e-06
2	0	0	0	1	21.8195	-0.357657	-0.358552	-0.0278778	2	-0.000926721	9.99567e-06
2	0	0	0	1	21.8494	-0.360653	-0.361536	-0.0284309	2	-0.00092757	1.02788e-05
2	0	0	1	1	21.8793	-0.363654	-0.36452	-0.0288863	2	-0.000928435	1.05296e-05
2	0	0	1	1	21.9093	-0.366653	-0.367516	-0.0294367	2	-0.000929317	1.08184e-05
2	0	0	1	1	21.9393	-0.369652	-0.370526	-0.0299796	2	-0.000930216	1.11082e-05
2	0	0	1	1	21.9693	-0.372651	-0.373521	-0.0304856	2	-0.00093113	1.1387e-05
2	0	0	1	1	21.9993	-0.37565	-0.37653	-0.0310524	2	-0.000932061	1.16922e-05
2	0	0	1	1	22.0293	-0.378649	-0.379519	-0.0315929	2	-0.000933008	1.19901e-05
2	0	0	1	1	22.0593	-0.381648	-0.382507	-0.0321211	2	-0.000933971	1.22865e-05
2	0	0	1	1	22.0893	-0.384647	-0.385509	-0.0326582	2	-0.00093495	1.259e-05
2	0	0	1	1	22.1193	-0.387646	-0.388509	-0.0332067	2	-0.000935946	1.29011e-05
2	0	0	1	1	22.1493	-0.390645	-0.39149	-0.0337507	2	-0.000936958	1.3213e-05
2	0	0	1	1	22.1793	-0.393644	-0.394487	-0.0342826	2	-0.000937986	1.3524e-05
2	0	0	1	1	22.2093	-0.396643	-0.397505	-0.0348473	2	-0.000939032	1.3852e-05
2	0	0	1	1	22.2393	-0.399642	-0.40051	-0.0354335	2	-0.000940094	1.41914e-05
2	0	0	1	1	22.2693	-0.40264	-0.403504	-0.0359686	2	-0.000941172	1.45135e-05
2	0	0	1	1	22.2993	-0.405639	-0.40651	-0.0365213	2	-0.000942267	1.48463e-05
2	0	0	1	1	22.3293	-0.408638	-0.409509	-0.037085	2	-0.000943379	1.51867e-05
2	0	0	1	1	22.3593	-0.411637	-0.412509	-0.0376062	2	-0.000944507	1.55129e-05
2	0	0	1	1	22.3893	-0.414636	-0.415516	-0.0381412	2	-0.000945652	1.58483e-05
2	0	0	0	1	22.4191	-0.417635	-0.418521	-0.0387361	2	-0.000946805	1.62118e-05
2	0	0	0	1	22.4491	-0.420634	-0.421511	-0.0392754	2	-0.000947983	1.6555e-05
2	0	0	0	1	22.4791	-0.423633	-0.424518	-0.0398032	2	-0.000949177	1.68972e-05
2	0	0	0	1	22.5091	-0.426632	-0.427536	-0.0403511	2	-0.000950386	1.72515e-05
2	0	0	0	1	22.5391	-0.429631	-0.430511	-0.0408763	2	-0.000951611	1.75977e-05
2	0	0	0	1	22.5691	-0.43263	-0.433508	-0.0413548	2	-0.000952852	1.79276e-05
2	0	0	0	1	22.5991	-0.435629	-0.436498	-0.0419013	2	-0.000954109	1.82898e-05
2	0	0	0	1	22.6291	-0.438628	-0.439516	-0.0424194	2	-0.000955381	1.8644e-05
2	0	0	0	1	22.6591	-0.441627	-0.442496	-0.0428979	2	-0.000956668	1.89822e-05
2	0	0	0	1	22.6891	-0.444625	-0.445485	-0.0434032	2	-0.00095797	1.93355e-05
2	0	0	0	1	22.7191	-0.447624	-0.448497	-0.0438819	2	-0.000959287	1.96809e-05
2	0	0	0	1	22.7491	-0.450623	-0.451486	-0.0443914	2	-0.000960618	2.00421e-05
2	0	0	0	1	22.7791	-0.453622	-0.454483	-0.0448486	2	-0.000961964	2.0383e-05
2	0	0	0	1	22.8091	-0.456621	-0.457496	-0.0453259	2	-0.000963324	2.07364e-05
2	0	0	0	1	22.8391	-0.45962	-0.460503	-0.0458302	2	-0.000964699	2.11049e-05
2	0	0	0	1	22.8691	-0.462619	-0.463496	-0.0462778	2	-0.000966087	2.14496e-05
2	0	0	0	1	22.8991	-0.465618	-0.466501	-0.0466705	2	-0.000967488	2.17718e-05
2	0	0	0	1	22.9291	-0.468617	-0.469487	-0.0470969	2	-0.000968904	2.21114e-05
2	0	0	0	1	22.9591	-0.471616	-0.472488	-0.0475769	2	-0.000970332	2.24795e-05
2	0	0	1	1	22.9889	-0.474615	-0.475513	-0.0480505	2	-0.000971765	2.28486e-05
2	0	0	1	1	23.0189	-0.477614	-0.478483	-0.0484618	2	-0.000973219	2.31882e-05
2	0	0	1	1	23.0489	-0.480613	-0.481474	-0.0488898	2	-0.000974687	2.35392e-05
2	0	0	1	1	23.0789	-0.483612	-0.484488	-0.0493103	2	-0.000976167	2.38902e-05
2	0	0	1	1	23.1089	-0.48661	-0.487494	-0.049706	2	-0.000977659	2.42314e-05
2	0	0	1	1	23.1389	-0.489609	-0.490492	-0.050097	2	-0.000979164	2.45722e-05
2	0	0	1	1	23.1689	-0.492608	-0.493479	-0.0505213	2	-0.000980681	2.49312e-05
2	0	0	1	1	23.1989	-0.495607	-0.496481	-0.0509303	2	-0.00098221	2.52859e-05
2	0	0	1	1	23.2289	-0.498606	-0.499475	-0.0513343	2	-0.000983751	2.56402e-05
2	0	0	1	1	23.2589	-0.501605	-0.502497	-0.0517007	2	-0.000985304	2.59795e-05
2	0	0	1	1	23.2889	-0.504604	-0.505486	-0.0521192	2	-0.00098687	2.63455e-05
2	0	0	1	1	23.3189	-0.507603	-0.508492	-0.0525031	2	-0.000988446	2.66974e-05
2	0	0	1	1	23.3489	-0.510602	-0.511516	-0.0529312	2	-0.000990035	2.70752e-05
2	0	0	1	1	23.3789	-0.513601	-0.514492	-0.0533298	2	-0.000991635	2.74378e-05
2	0	0	1	1	23.4089	-0.5166	-0.517477	-0.0536684	2	-0.000993247	2.77721e-05
2	0	0	1	1	23.4389	-0.519599	-0.520471	-0.0540485	2	-0.000994871	2.81307e-05
2	0	0	1	1	23.4689	-0.522598	-0.523487	-0.0544525	2	-0.000996506	2.85052e-05
2	0	0	1	1	23.4989	-0.525597	-0.52649	-0.0548201	2	-0.000998153	2.88622e-05
2	0	0	1	1	23.5288	-0.528593	-0.529482	-0.055269	2	-0.000999805	2.9264e-05
2	0	0	0	1	23.5587	-0.531594	-0.53249	-0.0556493	2	-0.00100147	2.96327e-05
2	0	0	0	1	23.5887	-0.534593	-0.535471	-0.0559685	2	-0.00100315	2.99695e-05
2	0	0	0	1	23.6187	-0.537592	-0.538472	-0.0563596	2	-0.00100484	3.0348e-05
2	0	0	0	1	23.6487	-0.540591	-0.541496	-0.056819	2	-0.00100655	3.07672e-05
2	0	0	0	1	23.6787	-0.54359	-0.54447	-0.0571894	2	-0.00100827	3.11379e-05
2	0	0	0	1	23.7087	-0.546589	-0.547472	-0.0575562	2	-0.00100999	3.15105e-05
2	0	0	0	1	23.7387	-0.549588	-0.550465	-0.057972	2	-0.00101173	3.19116e-05
2	0	0	0	1	23.7687	-0.552587	-0.55348	-0.0583595	2	-0.00101349	3.23008e-05
2	0	0	0	1	23.7987	-0.555586	-0.556484	-0.0587556	2	-0.00101525	3.26966e-05
2	0	0	0	1	23.8287	-0.558585	-0.559469	-0.0591262	2	-0.00101702	3.30793e-05
2	0	0	0	1	23.8587	-0.561584	-0.562477	-0.0595217	2	-0.00101881	3.34796e-05
2	0	0	0	1	23.8887	-0.564583	-0.565463	-0.0599429	2	-0.00102061	3.38955e-05
2	0	0	0	1	23.9187	-0.567582	-0.568466	-0.0603176	2	-0.00102242	3.42885e-05
2	0	0	0	1	23.9487	-0.570581	-0.571456	-0.0607585	2	-0.00102425	3.47208e-05
2	0	0	0	1	23.9787	-0.573579	-0.574466	-0.0612137	2	-0.00102608	3.51652e-05
2	0	0	0	1	24.0087	-0.576578	-0.57747	-0.0616153	2	-0.00102793	3.5581e-05
2	0	0	0	1	24.0387	-0.579577	-0.580451	-0.0619789	2	-0.0010298	3.59757e-05
2	0	0	0	1	24.0687	-0.582576	-0.583454	-0.0624455	2	-0.00103167	3.64341e-05
2	0	0	1	1	24.0985	-0.585575	-0.586463	-0.0628526	2	-0.00103354	3.68607e-05
2	0	0	1	1	24.1285	-0.588574	-0.58945	-0.0633139	2	-0.00103544	3.73203e-05
2	0	0	1	1	24.1585	-0.591573	-0.592461	-0.0637493	2	-0.00103736	3.7769e-05
2	0	0	1	1	24.1885	-0.594572	-0.595449	-0.0641881	2	-0.00103928	3.82207e-05
2	0	0	1	1	24.2185	-0.597571	-0.598452	-0.0646191	2	-0.00104122	3.86715e-05
2	0	0	1	1	24.2485	-0.60057	-0.601453	-0.0650869	2	-0.00104317	3.91467e-05
2	0	0	1	1	24.2785	-0.603569	-0.60445	-0.0655445	2	-0.00104514	3.96184e-05
2	0	0	1	1	24.3085	-0.606568	-0.607452	-0.0659738	2	-0.00104712	4.00759e-05
2	0	0	1	1	24.3385	-0.609567	-0.61045	-0.0664686	2	-0.00104911	4.05758e-05
2	0	0	1	1	24.3685	-0.612566	-0.613456	-0.0668869	2	-0.00105112	4.10322e-05
2	0	0	1	1	24.3985	-0.615564	-0.616453	-0.0673734	2	-0.00105314	4.15326e-05
2	0	0	1	1	24.4285	-0.618563	-0.619463	-0.0678382	2	-0.00105518	4.20232e-05
2	0	0	1	1	24.4585	-0.621562	-0.622452	-0.0683115	2	-0.00105722	4.25206e-05
2	0	0	1	1	24.4885	-0.624561	-0.625449	-0.0687749	2	-0.00105929	4.30151e-05
2	0	0	1	1	24.5185	-0.62756	-0.628441	-0.0692875	2	-0.00106137	4.35431e-05
2	0	0	1	1	24.5485	-0.630559	-0.631457	-0.0697822	2	-0.00106346	4.40645e-05
2	0	0	1	1	24.5785	-0.633558	-0.634451	-0.0702757	2	-0.00106557	4.45865e-05
2	0	0	1	1	24.6085	-0.636557	-0.637456	-0.070729	2	-0.00106769	4.50866e-05
2	0	0	1	1	24.6385	-0.639556	-0.640449	-0.0712684	2	-0.00106982	4.56438e-05
2	0	0	0	1	24.6683	-0.642555	-0.643455	-0.0717689	2	-0.00107196	4.61801e-05
2	0	0	0	1	24.6983	-0.645554	-0.646429	-0.0722753	2	-0.00107413	4.67208e-05
2	0	0	0	1	24.7283	-0.648553	-0.649442	-0.0728181	2	-0.00107632	4.72911e-05
2	0	0	0	1	24.7583	-0.651552	-0.652449	-0.0733463	2	-0.00107852	4.78548e-05
2	0	0	0	1	24.7883	-0.654551	-0.655446	-0.0739113	2	-0.00108073	4.84449e-05
2	0	0	0	1	24.8183	-0.657549	-0.658436	-0.0744643	2	-0.00108296	4.903e-05
2	0	0	0	1	24.8483	-0.660548	-0.661435	-0.0750537	2	-0.00108521	4.96431e-05
2	0	0	0	1	24.8783	-0.663547	-0.664457	-0.0755965	2	-0.00108748	5.02306e-05
2	0	0	0	1	24.9083	-0.666546	-0.667448	-0.0761594	2	-0.00108976	5.08324e-05
2	0	0	0	1	24.9383	-0.669545	-0.670431	-0.0767383	2	-0.00109206	5.14478e-05
2	0	0	0	1	24.9683	-0.672544	-0.673436	-0.0773223	2	-0.00109438	5.20716e-05
2	0	0	0	1	24.9983	-0.675543	-0.676444	-0.0779084	2	-0.00109672	5.27007e-05
2	0	0	0	1	25.0283	-0.678542	-0.679442	-0.0785387	2	-0.00109907	5.33625e-05
2	0	0	0	1	25.0583	-0.681541	-0.682433	-0.079131	2	-0.00110144	5.40016e-05
2	0	0	0	1	25.0883	-0.68454	-0.685436	-0.0797465	2	-0.00110384	5.46611e-05
2	0	0	0	1	25.1183	-0.687539	-0.688425	-0.0804019	2	-0.00110625	5.53507e-05
2	0	0	0	1	25.1483	-0.690538	-0.691438	-0.081054	2	-0.00110867	5.60438e-05
2	0	0	0	1	25.1783	-0.693537	-0.694404	-0.081675	2	-0.00111112	5.67155e-05
2	0	0	0	1	25.2082	-0.696533	-0.697412	-0.0823652	2	-0.00111358	5.74425e-05
2	0	0	1	1	25.2381	-0.699534	-0.700419	-0.0830363	2	-0.00111606	5.81602e-05
2	0	0	1	1	25.2681	-0.702533	-0.703432	-0.0837399	2	-0.00111857	5.89053e-05
2	0	0	1	1	25.2981	-0.705532	-0.706411	-0.0844481	2	-0.0011211	5.96551e-05
2	0	0	1	1	25.3281	-0.708531	-0.709426	-0.085141	2	-0.00112365	6.04013e-05
2	0	0	1	1	25.3581	-0.71153	-0.712444	-0.0858633	2	-0.00112622	6.11728e-05
2	0	0	1	1	25.3881	-0.714529	-0.715411	-0.086562	2	-0.00112881	6.19274e-05
2	0	0	1	1	25.4181	-0.717528	-0.718444	-0.0872821	2	-0.00113143	6.27073e-05
2	0	0	1	1	25.4481	-0.720527	-0.721417	-0.0880391	2	-0.00113407	6.35129e-05
2	0	0	1	1	25.4781	-0.723526	-0.724433	-0.0887903	2	-0.00113673	6.43226e-05
2	0	0	1	1	25.5081	-0.726525	-0.727423	-0.0895692	2	-0.00113941	6.51547e-05
2	0	0	1	1	25.5381	-0.729524	-0.730422	-0.0903784	2	-0.00114212	6.60144e-05
2	0	0	1	1	25.5681	-0.732523	-0.733437	-0.0912136	2	-0.00114485	6.68994e-05
2	0	0	1	1	25.5981	-0.735522	-0.736429	-0.091987	2	-0.0011476	6.77419e-05
2	0	0	1	1	25.6281	-0.738521	-0.73943	-0.0928455	2	-0.00115038	6.86527e-05
2	0	0	1	1	25.6581	-0.741519	-0.742417	-0.0936908	2	-0.00115319	6.95576e-05
2	0	0	1	1	25.6881	-0.744518	-0.745419	-0.0945782	2	-0.00115602	7.05004e-05
2	0	0	1	1	25.7181	-0.747517	-0.748415	-0.095439	2	-0.00115887	7.1428e-05
2	0	0	1	1	25.7481	-0.750516	-0.751419	-0.0963256	2	-0.00116176	7.23808e-05
2	0	0	0	1	25.7779	-0.753515	-0.754428	-0.09732	2	-0.00116465	7.34209e-05
2	0	0	0	1	25.8079	-0.756514	-0.757422	-0.0982826	2	-0.00116759	7.44414e-05
2	0	0	0	1	25.8379	-0.759513	-0.760414	-0.0992277	2	-0.00117056	7.54541e-05
2	0	0	0	1	25.8679	-0.762512	-0.763408	-0.100214	2	-0.00117356	7.6504e-05
2	0	0	0	1	25.8979	-0.765511	-0.766406	-0.101246	2	-0.00117659	7.75958e-05
2	0	0	0	1	25.9279	-0.76851	-0.769414	-0.102331	2	-0.00117965	7.87345e-05
2	0	0	1	1	25.9889	-0.774608	-0.775447	-0.103879	2	-0.00118595	8.05531e-05
2	0	0	1	1	26.0189	-0.777607	-0.77847	-0.105077	2	-0.00118911	8.17993e-05
2	0	0	1	1	26.0489	-0.780605	-0.781466	-0.106206	2	-0.0011923	8.29964e-05
2	0	0	1	1	26.0789	-0.783604	-0.784473	-0.107491	2	-0.00119553	8.4324e-05
2	0	0	1	1	26.1089	-0.786603	-0.787459	-0.108672	2	-0.00119879	8.55747e-05
2	0	0	1	1	26.1389	-0.789602	-0.790455	-0.110056	2	-0.0012021	8.6994e-05
2	0	0	1	1	26.1689	-0.792601	-0.793449	-0.111381	2	-0.00120544	8.83751e-05
2	0	0	1	1	26.1989	-0.7956	-0.796461	-0.112706	2	-0.00120882	8.97656e-05
2	0	0	1	1	26.2289	-0.798599	-0.799435	-0.114148	2	-0.00121225	9.12538e-05
2	0	0	1	1	26.2589	-0.801598	-0.802437	-0.115681	2	-0.00121572	9.28267e-05
2	0	0	1	1	26.2889	-0.804597	-0.805436	-0.117198	2	-0.00121924	9.43958e-05
2	0	0	1	1	26.3189	-0.807596	-0.808447	-0.118753	2	-0.0012228	9.60057e-05
2	0	0	0	1	26.3487	-0.810595	-0.811448	-0.120564	2	-0.00122639	9.78316e-05
2	0	0	0	1	26.3787	-0.813594	-0.814439	-0.122129	2	-0.00123005	9.94669e-05
2	0	0	0	1	26.4087	-0.816593	-0.817437	-0.123847	2	-0.00123376	0.000101237
2	0	0	0	1	26.4387	-0.819592	-0.820436	-0.125756	2	-0.00123753	0.000103175
2	0	0	0	1	26.4687	-0.82259	-0.823434	-0.127524	2	-0.00124135	0.000105007
2	0	0	0	1	26.4987	-0.825589	-0.826433	-0.129579	2	-0.00124523	0.000107089
2	0	0	0	1	26.5287	-0.828588	-0.82944	-0.131537	2	-0.00124917	0.000109102
2	0	0	0	1	26.5587	-0.831587	-0.832443	-0.133653	2	-0.00125317	0.000111259
2	0	0	0	1	26.5887	-0.834586	-0.835455	-0.135861	2	-0.00125724	0.000113506
2	0	0	0	1	26.6187	-0.837585	-0.838426	-0.138107	2	-0.00126137	0.000115792
2	0	0	0	1	26.6487	-0.840584	-0.841449	-0.1404	2	-0.00126557	0.00011814
2	0	0	0	1	26.6787	-0.843583	-0.844412	-0.142728	2	-0.00126984	0.000120521
2	0	0	0	1	26.7087	-0.846582	-0.84743	-0.145202	2	-0.00127418	0.000123048
2	0	0	0	1	26.7387	-0.849581	-0.850417	-0.14785	2	-0.0012786	0.000125735
2	0	0	0	1	26.7687	-0.85258	-0.853421	-0.150528	2	-0.00128309	0.000128464
2	0	0	0	1	26.7987	-0.855579	-0.856429	-0.153259	2	-0.00128767	0.000131255
2	0	0	0	1	26.8287	-0.858578	-0.859421	-0.156106	2	-0.00129234	0.000134161
2	0	0	0	1	26.8587	-0.861576	-0.862426	-0.159072	2	-0.00129709	0.000137188
2	0	0	0	1	26.8886	-0.864578	-0.865428	-0.162144	2	-0.00130191	0.000140324
2	0	0	1	1	26.9185	-0.867574	-0.868436	-0.165327	2	-0.00130683	0.000143576
2	0	0	1	1	26.9485	-0.870573	-0.871428	-0.168752	2	-0.00131187	0.000147055
2	0	0	1	1	26.9785	-0.873572	-0.874432	-0.172135	2	-0.001317	0.000150521
2	0	0	1	1	27.0085	-0.876571	-0.877428	-0.175713	2	-0.00132224	0.000154176
2	0	0	1	1	27.0385	-0.87957	-0.880425	-0.179301	2	-0.00132759	0.000157862
2	0	0	1	1	27.0685	-0.882569	-0.883423	-0.183172	2	-0.00133305	0.000161818
2	0	0	1	1	27.0985	-0.885568	-0.88645	-0.187209	2	-0.00133863	0.000165951
2	0	0	1	1	27.1285	-0.888567	-0.889425	-0.191387	2	-0.00134433	0.000170224
2	0	0	1	1	27.1585	-0.891566	-0.892421	-0.195663	2	-0.00135016	0.000174614
2	0	0	1	1	27.1885	-0.894565	-0.895429	-0.200102	2	-0.00135612	0.000179177
2	0	0	1	1	27.2185	-0.897564	-0.898423	-0.20478	2	-0.00136221	0.00018398
2	1	0	0	0	27.2434	-0.900013	-0.900869	-0.208577	2	-0.00136737	0.0001879
2	1	0	1	0	27.2689	-0.897464	-0.898327	-0.199776	2	-0.00137254	0.000179464
2	1	0	1	0	27.2989	-0.894465	-0.895311	-0.192647	2	-0.0013784	0.000172479
2	1	0	1	0	27.3289	-0.891466	-0.892307	-0.186367	2	-0.00138406	0.000166296
2	1	0	1	0	27.3589	-0.888467	-0.889307	-0.180412	2	-0.00138954	0.000160442
2	1	0	1	0	27.3889	-0.885468	-0.886322	-0.17491	2	-0.00139484	0.000155027
2	1	0	1	0	27.4189	-0.882469	-0.883307	-0.169661	2	-0.00139999	0.000149863
2	1	0	1	0	27.4489	-0.87947	-0.880319	-0.164639	2	-0.00140498	0.000144934
2	1	0	1	0	27.4789	-0.876471	-0.877293	-0.159849	2	-0.00140982	0.000140234
2	1	0	1	0	27.5089	-0.873472	-0.87431	-0.155306	2	-0.00141453	0.000135786
2	1	0	1	0	27.5389	-0.870473	-0.871303	-0.15085	2	-0.0014191	0.000131436
2	1	0	1	0	27.5689	-0.867474	-0.868305	-0.146813	2	-0.00142354	0.000127478
2	1	0	1	0	27.5988	-0.864473	-0.865306	-0.142647	2	-0.00142784	0.000123433
2	1	0	0	0	27.6287	-0.861476	-0.862324	-0.138844	2	-0.00143203	0.000119729
2	1	0	0	0	27.6587	-0.858478	-0.859324	-0.13519	2	-0.00143611	0.000116172
2	1	0	0	0	27.6887	-0.855479	-0.85633	-0.131617	2	-0.00144009	0.000112708
2	1	0	0	0	27.7187	-0.85248	-0.853303	-0.128141	2	-0.00144396	0.000109343
2	1	0	0	0	27.7487	-0.849481	-0.850329	-0.124838	2	-0.00144773	0.000106154
2	1	0	0	0	27.7787	-0.846482	-0.847334	-0.121648	2	-0.0014514	0.000103076
2	1	0	0	0	27.8087	-0.843483	-0.844325	-0.118561	2	-0.00145498	0.000100104
2	1	0	0	0	27.8387	-0.840484	-0.84133	-0.115596	2	-0.00145847	9.72542e-05
2	1	0	0	0	27.8687	-0.837485	-0.838336	-0.11272	2	-0.00146187	9.4497e-05
2	1	0	0	0	27.8987	-0.834486	-0.835357	-0.110011	2	-0.00146519	9.18986e-05
2	1	0	0	0	27.9287	-0.831487	-0.83234	-0.10736	2	-0.00146843	8.93601e-05
2	1	0	0	0	27.9587	-0.828488	-0.829338	-0.104681	2	-0.00147158	8.6816e-05
2	1	0	0	0	27.9887	-0.825489	-0.826335	-0.102288	2	-0.00147467	8.45242e-05
2	1	0	0	0	28.0187	-0.82249	-0.823342	-0.0998834	2	-0.00147768	8.22382e-05
2	1	0	0	0	28.0487	-0.819492	-0.820339	-0.09769	2	-0.00148062	8.01389e-05
2	1	0	0	0	28.0787	-0.816493	-0.817343	-0.0954403	2	-0.00148349	7.80075e-05
2	1	0	0	0	28.1087	-0.813494	-0.814339	-0.093325	2	-0.0014863	7.59981e-05
2	1	0	0	0	28.1387	-0.810495	-0.811325	-0.0912963	2	-0.00148905	7.40711e-05
2	1	0	1	0	28.1685	-0.807496	-0.808346	-0.0892219	2	-0.00149171	7.21222e-05
2	1	0	1	0	28.1985	-0.804497	-0.805338	-0.0874161	2	-0.00149434	7.03995e-05
2	1	0	1	0	28.2285	-0.801498	-0.802344	-0.0854516	2	-0.00149691	6.85616e-05
2	1	0	1	0	28.2585	-0.798499	-0.799342	-0.0837103	2	-0.00149943	6.69131e-05
2	1	0	1	0	28.2885	-0.7955	-0.796352	-0.0819996	2	-0.00150189	6.53005e-05
2	1	0	1	0	28.3185	-0.792501	-0.793349	-0.0803442	2	-0.0015043	6.3741e-05
2	1	0	1	0	28.3485	-0.789502	-0.79036	-0.0786904	2	-0.00150667	6.21937e-05
2	1	0	1	0	28.3785	-0.786503	-0.787352	-0.077218	2	-0.00150898	6.07977e-05
2	1	0	1	0	28.4085	-0.783504	-0.784355	-0.0756622	2	-0.00151125	5.93461e-05
2	1	0	1	0	28.4385	-0.780505	-0.781348	-0.0741751	2	-0.00151348	5.79566e-05
2	1	0	1	0	28.4685	-0.777507	-0.778347	-0.0727368	2	-0.00151566	5.66144e-05
2	1	0	1	0	28.4985	-0.774508	-0.775341	-0.0714367	2	-0.0015178	5.53878e-05
2	1	0	1	0	28.5285	-0.771509	-0.772334	-0.0701468	2	-0.00151991	5.41768e-05
2	1	0	1	0	28.5585	-0.76851	-0.769351	-0.0689209	2	-0.00152197	5.30244e-05
2	1	0	1	0	28.5885	-0.765511	-0.766352	-0.0677142	2	-0.001524	5.18929e-05
2	1	0	1	0	28.6185	-0.762512	-0.763351	-0.0665235	2	-0.00152599	5.07808e-05
2	1	0	1	0	28.6485	-0.759513	-0.760356	-0.0654224	2	-0.00152794	4.97444e-05
2	1	0	1	0	28.6785	-0.756514	-0.757358	-0.0642913	2	-0.00152987	4.86915e-05
2	1	0	1	0	28.7085	-0.753515	-0.754369	-0.0631809	2	-0.00153176	4.76617e-05
2	1	0	0	0	28.7383	-0.750516	-0.751373	-0.0622307	2	-0.0015336	4.67584e-05
2	1	0	0	0	28.7683	-0.747517	-0.748354	-0.0610679	2	-0.00153543	4.57004e-05
2	1	0	0	0	28.7983	-0.744518	-0.745359	-0.0601312	2	-0.00153722	4.48193e-05
2	1	0	0	0	28.8283	-0.741519	-0.742359	-0.0591296	2	-0.00153899	4.38954e-05
2	1	0	0	0	28.8583	-0.738521	-0.739356	-0.05826	2	-0.00154073	4.30749e-05
2	1	0	0	0	28.8883	-0.735522	-0.736383	-0.0574743	2	-0.00154245	4.23231e-05
2	1	0	0	0	28.9183	-0.732523	-0.733388	-0.0564626	2	-0.00154413	4.1409e-05
2	1	0	0	0	28.9483	-0.729524	-0.730372	-0.0556222	2	-0.00154579	4.06249e-05
2	1	0	0	0	28.9783	-0.726525	-0.727368	-0.054831	2	-0.00154743	3.98823e-05
2	1	0	0	0	29.0083	-0.723526	-0.724349	-0.0539806	2	-0.00154904	3.91008e-05
2	1	0	0	0	29.0383	-0.720527	-0.721382	-0.053272	2	-0.00155063	3.84295e-05
2	1	0	0	0	29.0683	-0.717528	-0.718386	-0.0525353	2	-0.00155219	3.77407e-05
2	1	0	0	0	29.0983	-0.714529	-0.715348	-0.0517764	2	-0.00155374	3.70381e-05
2	1	0	0	0	29.1283	-0.71153	-0.712358	-0.0509571	2	-0.00155526	3.62997e-05
2	1	0	0	0	29.1583	-0.708531	-0.70938	-0.0503354	2	-0.00155676	3.57069e-05
2	1	0	0	0	29.1883	-0.705532	-0.706375	-0.0496645	2	-0.00155823	3.50818e-05
2	1	0	0	0	29.2183	-0.702533	-0.703388	-0.0490261	2	-0.00155969	3.44844e-05
2	1	0	0	0	29.2483	-0.699534	-0.700386	-0.0482505	2	-0.00156113	3.3794e-05
2	1	0	0	0	29.3091	-0.693437	-0.694242	-0.0466523	2	-0.00156395	3.2388e-05
2	1	0	0	0	29.3391	-0.690438	-0.691259	-0.0460113	2	-0.00156533	3.18058e-05
2	1	0	0	0	29.3691	-0.687439	-0.688265	-0.0453973	2	-0.0015667	3.12454e-05
2	1	0	0	0	29.3991	-0.68444	-0.68526	-0.044807	2	-0.00156804	3.07044e-05
2	1	0	0	0	29.4291	-0.681441	-0.682259	-0.0441954	2	-0.00156937	3.01527e-05
2	1	0	0	0	29.4591	-0.678442	-0.679274	-0.0436093	2	-0.00157068	2.96227e-05
2	1	0	0	0	29.4891	-0.675443	-0.676263	-0.0430155	2	-0.00157197	2.90898e-05
2	1	0	0	0	29.5191	-0.672444	-0.673265	-0.042429	2	-0.00157324	2.85659e-05
2	1	0	0	0	29.5491	-0.669445	-0.670264	-0.0418666	2	-0.0015745	2.80616e-05
2	1	0	0	0	29.5791	-0.666446	-0.667258	-0.0413208	2	-0.00157574	2.75716e-05
2	1	0	0	0	29.6091	-0.663447	-0.664278	-0.0407544	2	-0.00157697	2.70722e-05
2	1	0	0	0	29.6391	-0.660448	-0.661269	-0.0401909	2	-0.00157817	2.6577e-05
2	1	0	0	0	29.6691	-0.657449	-0.658269	-0.0396681	2	-0.00157936	2.61123e-05
2	1	0	0	0	29.6991	-0.654451	-0.65527	-0.0391291	2	-0.00158054	2.56401e-05
2	1	0	0	0	29.7291	-0.651452	-0.652271	-0.0385971	2	-0.0015817	2.51758e-05
2	1	0	0	0	29.7591	-0.648453	-0.64925	-0.0380534	2	-0.00158284	2.47062e-05
2	1	0	0	0	29.7891	-0.645454	-0.64627	-0.0375357	2	-0.00158397	2.42582e-05
2	1	0	0	0	29.8191	-0.642455	-0.643272	-0.0370442	2	-0.00158508	2.38295e-05
2	1	0	1	0	29.8489	-0.639456	-0.640267	-0.036546	2	-0.00158617	2.33992e-05
2	1	0	1	0	29.8789	-0.636457	-0.637301	-0.036073	2	-0.00158725	2.29894e-05
2	1	0	1	0	29.9089	-0.633458	-0.634278	-0.0355475	2	-0.00158832	2.2547e-05
2	1	0	1	0	29.9389	-0.630459	-0.631289	-0.0350737	2	-0.00158937	2.21416e-05
2	1	0	1	0	29.9689	-0.62746	-0.628281	-0.0346161	2	-0.00159041	2.17486e-05
2	1	0	1	0	29.9989	-0.624461	-0.625268	-0.03409	2	-0.00159143	2.13154e-05
2	1	0	1	0	30.0289	-0.621462	-0.622282	-0.0336203	2	-0.00159244	2.09213e-05
2	1	0	1	0	30.0589	-0.618463	-0.619279	-0.0331925	2	-0.00159343	2.05554e-05
2	1	0	1	0	30.0889	-0.615464	-0.616283	-0.032716	2	-0.00159441	2.01623e-05
2	1	0	1	0	30.1189	-0.612465	-0.613269	-0.0322699	2	-0.00159538	1.97902e-05
2	1	0	1	0	30.1489	-0.609467	-0.610275	-0.0318106	2	-0.00159633	1.94132e-05
2	1	0	1	0	30.1789	-0.606468	-0.607277	-0.0313913	2	-0.00159727	1.90632e-05
2	1	0	1	0	30.2089	-0.603469	-0.604277	-0.0309432	2	-0.0015982	1.86983e-05
2	1	0	1	0	30.2389	-0.60047	-0.601286	-0.0305348	2	-0.00159912	1.83602e-05
2	1	0	1	0	30.2689	-0.597471	-0.598275	-0.0300601	2	-0.00160002	1.79842e-05
2	1	0	1	0	30.2989	-0.594472	-0.59527	-0.0296592	2	-0.00160091	1.76552e-05
2	1	0	1	0	30.3289	-0.591473	-0.592288	-0.0292596	2	-0.00160178	1.73301e-05
2	1	0	1	0	30.3589	-0.588474	-0.589279	-0.0288307	2	-0.00160265	1.69893e-05
2	1	0	1	0	30.3889	-0.585475	-0.586286	-0.0284972	2	-0.0016035	1.67075e-05
2	1	0	0	0	30.4187	-0.582476	-0.583283	-0.0280327	2	-0.00160434	1.6351e-05
2	1	0	0	0	30.4487	-0.579477	-0.580296	-0.0276356	2	-0.00160516	1.60368e-05
2	1	0	0	0	30.4787	-0.576478	-0.577287	-0.0272655	2	-0.00160598	1.574e-05
2	1	0	0	0	30.5087	-0.573479	-0.574286	-0.0268912	2	-0.00160679	1.54432e-05
2	1	0	0	0	30.5387	-0.570481	-0.571282	-0.0265193	2	-0.00160758	1.515e-05
2	1	0	0	0	30.5687	-0.567482	-0.568275	-0.0261385	2	-0.00160836	1.48538e-05
2	1	0	0	0	30.5987	-0.564483	-0.565291	-0.0257251	2	-0.00160913	1.45422e-05
2	1	0	0	0	30.6287	-0.561484	-0.562289	-0.025393	2	-0.0016099	1.42782e-05
2	1	0	0	0	30.6587	-0.558485	-0.55928	-0.0250535	2	-0.00161064	1.40119e-05
2	1	0	0	0	30.6887	-0.555486	-0.556279	-0.0246889	2	-0.00161138	1.37339e-05
2	1	0	0	0	30.7187	-0.552487	-0.553286	-0.0243213	2	-0.00161211	1.34566e-05
2	1	0	0	0	30.7487	-0.549488	-0.550289	-0.0239571	2	-0.00161283	1.31833e-05
2	1	0	0	0	30.7787	-0.546489	-0.547285	-0.023615	2	-0.00161353	1.29241e-05
2	1	0	0	0	30.8087	-0.54349	-0.544299	-0.023241	2	-0.00161423	1.26501e-05
2	1	0	0	0	30.8387	-0.540491	-0.541282	-0.0229336	2	-0.00161492	1.24135e-05
2	1	0	0	0	30.8687	-0.537492	-0.538296	-0.0225666	2	-0.00161559	1.21475e-05
2	1	0	0	0	30.8987	-0.534493	-0.5353	-0.022248	2	-0.00161626	1.19094e-05
2	1	0	0	0	30.9287	-0.531494	-0.532312	-0.0219081	2	-0.00161691	1.16619e-05
2	1	0	0	0	30.9586	-0.528489	-0.529307	-0.0214726	2	-0.00161755	1.13656e-05
2	1	0	1	0	30.9885	-0.525497	-0.526325	-0.021206	2	-0.00161818	1.11612e-05
2	1	0	1	0	31.0185	-0.522498	-0.523319	-0.0208561	2	-0.00161881	1.09144e-05
2	1	0	1	0	31.0485	-0.519499	-0.520324	-0.0205182	2	-0.00161942	1.06761e-05
2	1	0	1	0	31.0785	-0.5165	-0.517336	-0.0202086	2	-0.00162003	1.04546e-05
2	1	0	1	0	31.1085	-0.513501	-0.514326	-0.0199045	2	-0.00162062	1.02374e-05
2	1	0	1	0	31.1385	-0.510502	-0.511317	-0.0195158	2	-0.0016212	9.97877e-06
2	1	0	1	0	31.1685	-0.507503	-0.50832	-0.0191495	2	-0.00162178	9.73409e-06
2	1	0	1	0	31.1985	-0.504504	-0.505311	-0.0188456	2	-0.00162234	9.52289e-06
2	1	0	1	0	31.2285	-0.501505	-0.502327	-0.0184898	2	-0.00162289	9.28793e-06
2	1	0	1	0	31.2585	-0.498506	-0.499319	-0.0181788	2	-0.00162343	9.07702e-06
2	1	0	1	0	31.2885	-0.495507	-0.496316	-0.0178367	2	-0.00162397	8.85265e-06
2	1	0	1	0	31.3185	-0.492508	-0.49333	-0.0174752	2	-0.00162449	8.62106e-06
2	1	0	1	0	31.3485	-0.489509	-0.490318	-0.0171714	2	-0.001625	8.41947e-06
2	1	0	1	0	31.3785	-0.486511	-0.487329	-0.0168555	2	-0.00162551	8.21417e-06
2	1	0	1	0	31.4085	-0.483512	-0.484325	-0.016482	2	-0.001626	7.98263e-06
2	1	0	1	0	31.4385	-0.480513	-0.481337	-0.0161731	2	-0.00162648	7.78472e-06
2	1	0	1	0	31.4685	-0.477514	-0.478336	-0.0158074	2	-0.00162695	7.56123e-06
2	1	0	1	0	31.4985	-0.474515	-0.475332	-0.0154875	2	-0.00162742	7.36171e-06
2	1	0	0	0	31.5283	-0.471516	-0.472315	-0.015133	2	-0.00162787	7.14755e-06
2	1	0	0	0	31.5583	-0.468517	-0.469318	-0.0148154	2	-0.00162831	6.95312e-06
2	1	0	0	0	31.5883	-0.465518	-0.466338	-0.0144609	2	-0.00162874	6.74367e-06
2	1	0	0	0	31.6183	-0.462519	-0.463332	-0.0141272	2	-0.00162916	6.54556e-06
2	1	0	0	0	31.6483	-0.45952	-0.460337	-0.013747	2	-0.00162957	6.32824e-06
2	1	0	0	0	31.6783	-0.456521	-0.457326	-0.013413	2	-0.00162997	6.13413e-06
2	1	0	0	0	31.7083	-0.453522	-0.454332	-0.0130508	2	-0.00163036	5.92938e-06
2	1	0	0	0	31.7383	-0.450523	-0.451331	-0.0127066	2	-0.00163074	5.73488e-06
2	1	0	0	0	31.7683	-0.447524	-0.448325	-0.0123654	2	-0.00163111	5.54371e-06
2	1	0	0	0	31.7983	-0.444526	-0.44534	-0.0120124	2	-0.00163147	5.34961e-06
2	1	0	0	0	31.8283	-0.441527	-0.442333	-0.0117048	2	-0.00163182	5.17742e-06
2	1	0	0	0	31.8583	-0.438528	-0.439331	-0.0113345	2	-0.00163215	4.97958e-06
2	1	0	0	0	31.8883	-0.435529	-0.43634	-0.0109703	2	-0.00163248	4.7868e-06
2	1	0	0	0	31.9183	-0.43253	-0.433338	-0.0105986	2	-0.0016328	4.59279e-06
2	1	0	0	0	31.9483	-0.429531	-0.43035	-0.010224	2	-0.0016331	4.3999e-06
2	1	0	0	0	31.9783	-0.426532	-0.427345	-0.0098963	2	-0.0016334	4.22913e-06
2	1	0	0	0	32.0083	-0.423533	-0.424354	-0.00951881	2	-0.00163368	4.03935e-06
2	1	0	0	0	32.0383	-0.420534	-0.421337	-0.00919783	2	-0.00163395	3.87539e-06
2	1	0	0	0	32.0683	-0.417535	-0.418346	-0.00879055	2	-0.00163422	3.6775e-06
2	1	0	1	0	32.0981	-0.414536	-0.415341	-0.00843044	2	-0.00163446	3.50151e-06
2	1	0	1	0	32.1281	-0.411537	-0.412346	-0.00811345	2	-0.00163471	3.34555e-06
2	1	0	1	0	32.1581	-0.408538	-0.409347	-0.00774396	2	-0.00163494	3.16997e-06
2	1	0	1	0	32.1881	-0.405539	-0.406342	-0.00738621	2	-0.00163516	3.00133e-06
2	1	0	1	0	32.2181	-0.402541	-0.403352	-0.00707077	2	-0.00163537	2.85201e-06
2	1	0	1	0	32.2481	-0.399542	-0.400344	-0.00668982	2	-0.00163556	2.67823e-06
2	1	0	1	0	32.2781	-0.396543	-0.397359	-0.00633353	2	-0.00163575	2.51669e-06
2	1	0	1	0	32.3081	-0.393544	-0.394331	-0.00600836	2	-0.00163593	2.36928e-06
2	1	0	1	0	32.3381	-0.390545	-0.39134	-0.00568343	2	-0.0016361	2.22415e-06
2	1	0	1	0	32.3681	-0.387546	-0.388346	-0.00530143	2	-0.00163625	2.05879e-06
2	1	0	1	0	32.3981	-0.384547	-0.38535	-0.00497534	2	-0.0016364	1.91725e-06
2	1	0	0	0	32.4591	-0.378449	-0.379255	-0.00405861	2	-0.00163666	1.53925e-06
2	1	0	0	0	32.4891	-0.37545	-0.376274	-0.0037208	2	-0.00163678	1.40004e-06
2	1	0	0	0	32.5191	-0.372451	-0.373251	-0.00338947	2	-0.00163688	1.26512e-06
2	1	0	0	0	32.5491	-0.369452	-0.370252	-0.00303997	2	-0.00163698	1.12555e-06
2	1	0	0	0	32.5791	-0.366453	-0.36727	-0.00273288	2	-0.00163707	1.00371e-06
2	1	0	0	0	32.6091	-0.363455	-0.364258	-0.00240907	2	-0.00163714	8.77524e-07
2	1	0	0	0	32.639	-0.360446	-0.36125	-0.0020562	2	-0.00163721	7.42805e-07
2	1	0	1	0	32.6689	-0.357457	-0.358276	-0.00176645	2	-0.00163727	6.32876e-07
2	1	0	1	0	32.6989	-0.354458	-0.355265	-0.00145373	2	-0.00163732	5.16457e-07
2	1	0	1	0	32.7289	-0.351459	-0.35227	-0.00114178	2	-0.00163735	4.02216e-07
2	1	0	1	0	32.7589	-0.34846	-0.349266	-0.000823184	2	-0.00163738	2.87511e-07
2	1	0	1	0	32.7889	-0.345461	-0.346265	-0.000513738	2	-0.0016374	1.7789e-07
2	1	0	1	0	32.8189	-0.342462	-0.343258	-0.000201172	2	-0.00163741	6.90537e-08
2	1	0	1	0	32.8489	-0.339463	-0.340251	0.000105174	2	-0.00163741	3.57856e-08
2	1	0	1	0	32.8789	-0.336464	-0.337264	0.000424459	2	-0.00163741	1.43155e-07
2	1	0	1	0	32.9089	-0.333465	-0.334255	0.000731491	2	-0.00163739	2.44504e-07
2	1	0	1	0	32.9389	-0.330466	-0.33126	0.00102758	2	-0.00163736	3.40395e-07
2	1	0	1	0	32.9689	-0.327467	-0.328281	0.00134207	2	-0.00163733	4.40575e-07
2	1	0	1	0	32.9989	-0.324468	-0.325284	0.00162693	2	-0.00163728	5.29214e-07
2	1	0	1	0	33.0289	-0.32147	-0.322275	0.00194875	2	-0.00163723	6.28035e-07
2	1	0	1	0	33.0589	-0.318471	-0.319248	0.00227078	2	-0.00163716	7.24944e-07
2	1	0	1	0	33.0889	-0.315472	-0.316257	0.00255014	2	-0.00163709	8.065e-07
2	1	0	1	0	33.1189	-0.312473	-0.313268	0.00285954	2	-0.00163701	8.95801e-07
2	1	0	1	0	33.1489	-0.309474	-0.310258	0.00316758	2	-0.00163692	9.82766e-07
2	1	0	1	0	33.1789	-0.306475	-0.307237	0.00347703	2	-0.00163682	1.06827e-06
2	1	0	0	0	33.2087	-0.303476	-0.30424	0.00380032	2	-0.00163671	1.15621e-06
2	1	0	0	0	33.2387	-0.300477	-0.301251	0.00409791	2	-0.00163659	1.2345e-06
2	1	0	0	0	33.2687	-0.297478	-0.298255	0.00441113	2	-0.00163646	1.31564e-06
2	1	0	0	0	33.2987	-0.294479	-0.29526	0.00472744	2	-0.00163632	1.39582e-06
2	1	0	0	0	33.3287	-0.29148	-0.292251	0.00506094	2	-0.00163618	1.47906e-06
2	1	0	0	0	33.3587	-0.288481	-0.289228	0.00537302	2	-0.00163602	1.55402e-06
2	1	0	0	0	33.3887	-0.285482	-0.286248	0.00569071	2	-0.00163585	1.62896e-06
2	1	0	0	0	33.4187	-0.282483	-0.283266	0.00603157	2	-0.00163568	1.70854e-06
2	1	0	0	0	33.4487	-0.279485	-0.280256	0.00636091	2	-0.00163549	1.78269e-06
2	1	0	0	0	33.4787	-0.276486	-0.277265	0.00670457	2	-0.0016353	1.85894e-06
2	1	0	0	0	33.5087	-0.273487	-0.274262	0.00701268	2	-0.00163509	1.92331e-06
2	1	0	0	0	33.5387	-0.270488	-0.271267	0.00737231	2	-0.00163487	1.99987e-06
2	1	0	0	0	33.5687	-0.267489	-0.26825	0.00769116	2	-0.00163465	2.06316e-06
2	1	0	0	0	33.5987	-0.26449	-0.265251	0.00805809	2	-0.00163441	2.13742e-06
2	1	0	0	0	33.6287	-0.261491	-0.262252	0.00838853	2	-0.00163416	2.19991e-06
2	1	0	0	0	33.6587	-0.258492	-0.259247	0.00873083	2	-0.00163391	2.26344e-06
2	1	0	0	0	33.6887	-0.255493	-0.25626	0.00909315	2	-0.00163364	2.33021e-06
2	1	0	0	0	33.7187	-0.252494	-0.253253	0.00943496	2	-0.00163336	2.38944e-06
2	1	0	0	0	33.7487	-0.249495	-0.250256	0.00979009	2	-0.00163307	2.45003e-06
2	1	0	1	0	33.7785	-0.246496	-0.247254	0.0101545	2	-0.00163277	2.51074e-06
2	1	0	0	0	33.8395	-0.240398	-0.241189	0.0106492	2	-0.00163214	2.56847e-06
2	1	0	0	0	33.8695	-0.2374	-0.23817	0.0110312	2	-0.0016318	2.6273e-06
2	1	0	0	0	33.8995	-0.234401	-0.23518	0.0113472	2	-0.00163146	2.66864e-06
2	1	0	0	0	33.9295	-0.231402	-0.232181	0.0117233	2	-0.00163111	2.72193e-06
2	1	0	0	0	33.9595	-0.228403	-0.229193	0.0120483	2	-0.00163074	2.76139e-06
2	1	0	0	0	33.9895	-0.225404	-0.226185	0.0124442	2	-0.00163037	2.81468e-06
2	1	0	0	0	34.0195	-0.222405	-0.223185	0.0128135	2	-0.00162998	2.85978e-06
2	1	0	0	0	34.0495	-0.219406	-0.220198	0.0131557	2	-0.00162958	2.89685e-06
2	1	0	0	0	34.0795	-0.216407	-0.217184	0.0135711	2	-0.00162918	2.94743e-06
2	1	0	0	0	34.1095	-0.213408	-0.214186	0.013888	2	-0.00162876	2.97462e-06
2	1	0	0	0	34.1395	-0.210409	-0.21119	0.01428	2	-0.00162833	3.01579e-06
2	1	0	0	0	34.1695	-0.20741	-0.2082	0.0146205	2	-0.00162789	3.04398e-06
2	1	0	0	0	34.1995	-0.204411	-0.205186	0.014965	2	-0.00162744	3.0706e-06
2	1	0	0	0	34.2295	-0.201412	-0.202186	0.0153451	2	-0.00162697	3.10258e-06
2	1	0	0	0	34.2595	-0.198413	-0.199183	0.0156572	2	-0.0016265	3.11865e-06
2	1	0	0	0	34.2895	-0.195415	-0.196196	0.0159997	2	-0.00162602	3.13908e-06
2	1	0	1	0	34.3193	-0.192416	-0.19319	0.0163545	2	-0.00162553	3.15952e-06
2	1	0	1	0	34.3493	-0.189417	-0.190181	0.0166982	2	-0.00162503	3.17569e-06
2	1	0	1	0	34.3793	-0.186418	-0.187166	0.0169797	2	-0.00162451	3.17801e-06
2	1	0	1	0	34.4093	-0.183419	-0.184185	0.01728	2	-0.00162399	3.1827e-06
2	1	0	1	0	34.4393	-0.18042	-0.181177	0.0175803	2	-0.00162346	3.18515e-06
2	1	0	1	0	34.4693	-0.177421	-0.178203	0.0178818	2	-0.00162292	3.18658e-06
2	1	0	1	0	34.4993	-0.174422	-0.175199	0.0181137	2	-0.00162238	3.17349e-06
2	1	0	1	0	34.5293	-0.171423	-0.172183	0.0183807	2	-0.00162182	3.16484e-06
2	1	0	1	0	34.5593	-0.168424	-0.169204	0.0185878	2	-0.00162126	3.14512e-06
2	1	0	1	0	34.5893	-0.165425	-0.166195	0.0187906	2	-0.00162069	3.1229e-06
2	1	0	1	0	34.6193	-0.162426	-0.163194	0.0189649	2	-0.00162012	3.09496e-06
2	1	0	1	0	34.6493	-0.159427	-0.160195	0.0191332	2	-0.00161954	3.06504e-06
2	1	0	1	0	34.6793	-0.156428	-0.157218	0.0192664	2	-0.00161895	3.02902e-06
2	1	0	1	0	34.7093	-0.15343	-0.154206	0.0193568	2	-0.00161837	2.98493e-06
2	1	0	1	0	34.7393	-0.150431	-0.151205	0.0194285	2	-0.00161778	2.93769e-06
2	1	0	1	0	34.7693	-0.147432	-0.148203	0.0195013	2	-0.00161718	2.89014e-06
2	1	0	1	0	34.7993	-0.144433	-0.145217	0.0195108	2	-0.00161659	2.83329e-06
2	1	0	1	0	34.8293	-0.141434	-0.142223	0.0195119	2	-0.001616	2.77504e-06
2	1	0	1	0	34.8593	-0.138435	-0.139189	0.0195403	2	-0.00161541	2.71981e-06
2	1	0	0	0	34.8891	-0.135436	-0.136195	0.019466	2	-0.00161482	2.65117e-06
2	1	0	0	0	34.9191	-0.132437	-0.133209	0.0192933	2	-0.00161423	2.57004e-06
2	1	0	0	0	34.9491	-0.129438	-0.130214	0.0192349	2	-0.00161364	2.50465e-06
2	1	0	0	0	34.9791	-0.126439	-0.127247	0.0190507	2	-0.00161306	2.42414e-06
2	1	0	0	0	35.0091	-0.12344	-0.124233	0.0189466	2	-0.00161249	2.35379e-06
2	1	0	0	0	35.0391	-0.120441	-0.121212	0.0187001	2	-0.00161191	2.26667e-06
2	1	0	0	0	35.0691	-0.117442	-0.118227	0.0184982	2	-0.00161135	2.18698e-06
2	1	0	0	0	35.0991	-0.114444	-0.115223	0.0182836	2	-0.00161079	2.1067e-06
2	1	0	0	0	35.1291	-0.111445	-0.112209	0.0180759	2	-0.00161024	2.02828e-06
2	1	0	0	0	35.1591	-0.108446	-0.109207	0.0178224	2	-0.00160969	1.94633e-06
2	1	0	0	0	35.1891	-0.105447	-0.106227	0.0175455	2	-0.00160915	1.8638e-06
2	1	0	0	0	35.2191	-0.102448	-0.103208	0.0172738	2	-0.00160862	1.7828e-06
2	1	0	0	0	35.2491	-0.0994489	-0.100206	0.0170401	2	-0.0016081	1.70751e-06
2	1	0	0	0	35.2791	-0.0964499	-0.0972198	0.016773	2	-0.00160759	1.63067e-06
2	1	0	0	0	35.3091	-0.093451	-0.0942156	0.0165057	2	-0.00160708	1.5551e-06
2	1	0	0	0	35.3391	-0.0904521	-0.0912318	0.0162246	2	-0.00160658	1.4802e-06
2	1	0	0	0	35.3691	-0.0874531	-0.088217	0.0159609	2	-0.00160609	1.40803e-06
2	1	0	0	0	35.3991	-0.0844542	-0.085211	0.0157296	2	-0.00160561	1.34034e-06
2	1	0	0	0	35.429	-0.0814644	-0.0822256	0.0154445	2	-0.00160514	1.26993e-06
2	1	0	1	0	35.4589	-0.0784564	-0.0792174	0.0151702	2	-0.00160467	1.20175e-06
2	1	0	1	0	35.4889	-0.0754574	-0.0762315	0.0149582	2	-0.00160421	1.14028e-06
2	1	0	1	0	35.5189	-0.0724585	-0.0732317	0.0147857	2	-0.00160376	1.08278e-06
2	1	0	1	0	35.5489	-0.0694596	-0.0702152	0.0145433	2	-0.00160331	1.02116e-06
2	1	0	1	0	35.5789	-0.0664607	-0.0672203	0.014334	2	-0.00160287	9.63538e-07
2	1	0	1	0	35.6089	-0.0634617	-0.0642424	0.0141023	2	-0.00160244	9.05966e-07
2	1	0	1	0	35.6389	-0.0604628	-0.0612256	0.0139198	2	-0.00160201	8.52251e-07
2	1	0	1	0	35.6689	-0.0574639	-0.0582161	0.0137356	2	-0.00160159	7.99634e-07
2	1	0	1	0	35.6989	-0.0544649	-0.0552266	0.0136257	2	-0.00160117	7.52503e-07
2	1	0	1	0	35.7289	-0.051466	-0.0522308	0.0134069	2	-0.00160076	7.00252e-07
2	1	0	1	0	35.7589	-0.0484671	-0.0492401	0.0132543	2	-0.00160035	6.52642e-07
2	1	0	1	0	35.7889	-0.0454681	-0.0462372	0.0131603	2	-0.00159995	6.08495e-07
2	1	0	1	0	35.8189	-0.0424692	-0.0432476	0.0130096	2	-0.00159955	5.62635e-07
2	1	0	1	0	35.8489	-0.0394703	-0.0402411	0.0128945	2	-0.00159915	5.1889e-07
2	1	0	1	0	35.8789	-0.0364714	-0.0372294	0.0127655	2	-0.00159876	4.75253e-07
2	1	0	1	0	35.9089	-0.0334724	-0.0342462	0.0126602	2	-0.00159837	4.33562e-07
2	1	0	1	0	35.9389	-0.0304735	-0.0312433	0.0125593	2	-0.00159798	3.92392e-07
2	1	0	1	0	35.9689	-0.0274746	-0.0282333	0.012473	2	-0.0015976	3.52156e-07
2	1	0	0	0	35.9952	-0.0248255	-0.0256016	0.012442	2	-0.00159727	3.18536e-07