File: TAP_Report/Data/Res_growth/mg4_2_2.mpt
EC-Lab ASCII FILE
Nb header lines : 54

Cyclic Voltammetry

Run on channel : 1 (SN 0696)
User :
Electrode connection : standard
Ewe ctrl range : min = -2.50 V, max = 2.50 V
Ewe,I filtering : 50 kHz
Channel : Grounded
Acquisition started on : 01/18/2017 14:49:25
Saved on :
	File : mg4_2.mpr
	Directory : H:\EC-Lab\Data\Resazurin Bulk 18-1-17\
	Host : 144.32.136.43
Device : SP-300 (SN 0182)
Address : USB
EC-Lab for windows v10.44 (software)
Internet server v10.44 (firmware)
Command interpretor v10.44 (firmware)
Electrode material :
Initial state :
Electrolyte :
Comments :
Cable : standard
Reference electrode : SCE Saturated Calomel Electrode (0.241 V)
Electrode surface area : 0.001 cm²
Characteristic mass : 0.001 g
Equivalent Weight : 0.000 g/eq.
Density : 0.000 g/cm3
Ei (V)              0.000
vs.                 Eoc
dE/dt               100.000
dE/dt unit          mV/s
E1 (V)              0.000
vs.                 Ref
Step percent        50
N                   10
E range min (V)     -2.500
E range max (V)     2.500
I Range             Auto
I Range min         Unset
I Range max         Unset
I Range init        Unset
Bandwidth           8
E2 (V)              -0.900
vs.                 Ref
nc cycles           2
Reverse Scan        1
Ef (V)              0.000
vs.                 Eoc

mode	ox/red	error	control changes	counter inc.	time/s	control/V	Ewe/V	<I>/mA	cycle number	(Q-Qo)/C	P/W
2	1	0	1	1	17.9956	-0.0277245	-0.0281234	0.0122438	2	-0.000735646	3.44338e-07
2	1	0	0	1	18.0211	-0.0251754	-0.0255615	0.012172	2	-0.000735327	3.11134e-07
2	1	0	0	1	18.0511	-0.0221765	-0.0225507	0.0120807	2	-0.000734954	2.72428e-07
2	1	0	0	1	18.0811	-0.0191775	-0.019548	0.0119982	2	-0.000734585	2.34541e-07
2	1	0	0	1	18.1111	-0.0161786	-0.0165618	0.0118846	2	-0.000734218	1.96831e-07
2	1	0	0	1	18.1411	-0.0131797	-0.0135521	0.0118127	2	-0.000733854	1.60087e-07
2	1	0	0	1	18.1711	-0.0101808	-0.010565	0.0117168	2	-0.000733493	1.23789e-07
2	1	0	0	1	18.2011	-0.00718183	-0.00755808	0.0116812	2	-0.000733133	8.82876e-08
2	1	0	0	1	18.2311	-0.0041829	-0.00457125	0.0115904	2	-0.000732776	5.29826e-08
2	1	0	0	1	18.2611	-0.00118397	-0.00157572	0.0115423	2	-0.000732421	1.81875e-08
2	0	0	0	1	18.2787	-0.000584183	-0.00100214	0.00955662	2	-0.000732227	9.57707e-09
2	0	0	0	1	18.3087	-0.00358311	-0.00399576	0.00788185	2	-0.000731979	3.14939e-08
2	0	0	0	1	18.3387	-0.00658204	-0.00699022	0.00700395	2	-0.000731765	4.89592e-08
2	0	0	0	1	18.3687	-0.00958097	-0.0100055	0.00630646	2	-0.000731574	6.3099e-08
2	0	0	0	1	18.3987	-0.0125799	-0.0129904	0.00574175	2	-0.000731402	7.45875e-08
2	0	0	0	1	18.4287	-0.0155788	-0.0160147	0.00529745	2	-0.000731244	8.48373e-08
2	0	0	0	1	18.4587	-0.0185778	-0.0189835	0.0048728	2	-0.0007311	9.2503e-08
2	0	0	1	1	18.5197	-0.0246756	-0.0250933	0.00385388	2	-0.000730831	9.67065e-08
2	0	0	1	1	18.5496	-0.0276677	-0.0280849	0.003527	2	-0.000730721	9.90553e-08
2	0	0	0	1	18.5795	-0.0306734	-0.0311081	0.00324568	2	-0.00073062	1.00967e-07
2	0	0	0	1	18.6095	-0.0336724	-0.0340945	0.00295573	2	-0.000730528	1.00774e-07
2	0	0	0	1	18.6395	-0.0366713	-0.0370945	0.00271056	2	-0.000730443	1.00547e-07
2	0	0	0	1	18.6695	-0.0396702	-0.0401029	0.00247121	2	-0.000730365	9.91027e-08
2	0	0	0	1	18.6995	-0.0426691	-0.0431033	0.00224131	2	-0.000730295	9.66079e-08
2	0	0	0	1	18.7295	-0.0456681	-0.0461126	0.0020387	2	-0.00073023	9.40099e-08
2	0	0	0	1	18.7595	-0.048667	-0.0491035	0.00185636	2	-0.000730172	9.11536e-08
2	0	0	0	1	18.7895	-0.0516659	-0.0521015	0.00165925	2	-0.00073012	8.64496e-08
2	0	0	0	1	18.8195	-0.0546649	-0.055114	0.00148021	2	-0.000730073	8.15802e-08
2	0	0	0	1	18.8495	-0.0576638	-0.0580871	0.00130411	2	-0.000730032	7.57519e-08
2	0	0	0	1	18.8795	-0.0606627	-0.0610964	0.00113448	2	-0.000729996	6.93128e-08
2	0	0	0	1	18.9095	-0.0636616	-0.0641019	0.00097664	2	-0.000729964	6.26044e-08
2	0	0	0	1	18.9395	-0.0666606	-0.0671048	0.000824994	2	-0.000729937	5.53611e-08
2	0	0	0	1	18.9695	-0.0696595	-0.0701126	0.000684836	2	-0.000729915	4.80156e-08
2	0	0	0	1	18.9995	-0.0726584	-0.0730937	0.000549072	2	-0.000729896	4.01337e-08
2	0	0	0	1	19.0295	-0.0756574	-0.0760929	0.000418336	2	-0.000729882	3.18324e-08
2	0	0	0	1	19.0595	-0.0786563	-0.0790873	0.000279129	2	-0.000729872	2.20756e-08
2	0	0	0	1	19.0895	-0.0816552	-0.0820922	0.000174175	2	-0.000729866	1.42984e-08
2	0	0	1	1	19.1193	-0.0846541	-0.0850839	1.75108e-05	2	-0.000729864	1.48988e-09
2	0	0	1	1	19.1493	-0.0876531	-0.0880773	-0.000101897	2	-0.000729865	8.97484e-09
2	0	0	1	1	19.1793	-0.090652	-0.0910974	-0.000213596	2	-0.00072987	1.9458e-08
2	0	0	1	1	19.2093	-0.0936509	-0.0940916	-0.000335577	2	-0.000729879	3.1575e-08
2	0	0	1	1	19.2393	-0.0966498	-0.0970954	-0.000437807	2	-0.000729891	4.25091e-08
2	0	0	1	1	19.2693	-0.0996488	-0.10009	-0.000553775	2	-0.000729906	5.54273e-08
2	0	0	1	1	19.2993	-0.102648	-0.103086	-0.000661388	2	-0.000729924	6.81796e-08
2	0	0	1	1	19.3293	-0.105647	-0.106094	-0.00076962	2	-0.000729946	8.16518e-08
2	0	0	1	1	19.3593	-0.108646	-0.10909	-0.00088189	2	-0.000729972	9.62057e-08
2	0	0	1	1	19.3893	-0.111644	-0.112074	-0.000989918	2	-0.00073	1.10944e-07
2	0	0	1	1	19.4193	-0.114643	-0.115096	-0.00109931	2	-0.000730032	1.26526e-07
2	0	0	1	1	19.4493	-0.117642	-0.118099	-0.00120658	2	-0.000730067	1.42495e-07
2	0	0	1	1	19.4793	-0.120641	-0.121098	-0.00130909	2	-0.000730105	1.58529e-07
2	0	0	1	1	19.5093	-0.12364	-0.124091	-0.00142868	2	-0.000730146	1.77286e-07
2	0	0	1	1	19.5393	-0.126639	-0.127074	-0.00152845	2	-0.00073019	1.94225e-07
2	0	0	1	1	19.5693	-0.129638	-0.130087	-0.00162811	2	-0.000730238	2.11796e-07
2	0	0	1	1	19.5993	-0.132637	-0.133089	-0.0017427	2	-0.000730289	2.31933e-07
2	0	0	1	1	19.6293	-0.135636	-0.136083	-0.00186367	2	-0.000730343	2.53614e-07
2	0	0	1	1	19.6593	-0.138635	-0.139073	-0.00196742	2	-0.000730401	2.73615e-07
2	0	0	0	1	19.6891	-0.141634	-0.142081	-0.00207546	2	-0.000730461	2.94883e-07
2	0	0	0	1	19.7191	-0.144633	-0.145086	-0.00220558	2	-0.000730526	3.19999e-07
2	0	0	0	1	19.7491	-0.147632	-0.148079	-0.00231155	2	-0.000730594	3.42291e-07
2	0	0	0	1	19.7791	-0.150631	-0.151073	-0.00243179	2	-0.000730665	3.67377e-07
2	0	0	0	1	19.8091	-0.153629	-0.15407	-0.00255817	2	-0.000730741	3.94136e-07
2	0	0	0	1	19.8391	-0.156628	-0.157092	-0.00268486	2	-0.00073082	4.21771e-07
2	0	0	0	1	19.8691	-0.159627	-0.160077	-0.00282334	2	-0.000730903	4.51953e-07
2	0	0	0	1	19.8991	-0.162626	-0.163074	-0.00295117	2	-0.00073099	4.81258e-07
2	0	0	0	1	19.9291	-0.165625	-0.166101	-0.00309323	2	-0.000731081	5.13791e-07
2	0	0	0	1	19.9591	-0.168624	-0.169089	-0.00324478	2	-0.000731176	5.48658e-07
2	0	0	0	1	19.9891	-0.171623	-0.172089	-0.00338343	2	-0.000731276	5.82252e-07
2	0	0	0	1	20.0191	-0.174622	-0.175092	-0.00355131	2	-0.00073138	6.21806e-07
2	0	0	0	1	20.0491	-0.177621	-0.178089	-0.00370473	2	-0.000731489	6.59771e-07
2	0	0	0	1	20.0791	-0.18062	-0.181078	-0.0038849	2	-0.000731603	7.03468e-07
2	0	0	0	1	20.1091	-0.183619	-0.18408	-0.00406007	2	-0.000731723	7.47379e-07
2	0	0	0	1	20.1391	-0.186618	-0.18708	-0.00424994	2	-0.000731848	7.9508e-07
2	0	0	0	1	20.1691	-0.189617	-0.190079	-0.00444638	2	-0.000731978	8.45162e-07
2	0	0	0	1	20.1991	-0.192616	-0.193075	-0.00463522	2	-0.000732115	8.94944e-07
2	0	0	0	1	20.229	-0.19561	-0.196073	-0.00486367	2	-0.000732257	9.53635e-07
2	0	0	1	1	20.2589	-0.198613	-0.199085	-0.00508684	2	-0.000732407	1.01272e-06
2	0	0	1	1	20.2889	-0.201612	-0.20209	-0.0053261	2	-0.000732563	1.07635e-06
2	0	0	1	1	20.3189	-0.204611	-0.205085	-0.0055635	2	-0.000732727	1.14099e-06
2	0	0	1	1	20.3489	-0.20761	-0.208117	-0.0058238	2	-0.000732898	1.21203e-06
2	0	0	1	1	20.3789	-0.210609	-0.211076	-0.00608746	2	-0.000733077	1.28492e-06
2	0	0	1	1	20.4089	-0.213608	-0.214082	-0.00637	2	-0.000733264	1.36371e-06
2	0	0	1	1	20.4389	-0.216607	-0.217095	-0.00667148	2	-0.00073346	1.44834e-06
2	0	0	1	1	20.4689	-0.219606	-0.220099	-0.0069786	2	-0.000733665	1.53598e-06
2	0	0	1	1	20.4989	-0.222605	-0.223097	-0.00729282	2	-0.000733879	1.62701e-06
2	0	0	1	1	20.5289	-0.225604	-0.226089	-0.00765336	2	-0.000734104	1.73034e-06
2	0	0	1	1	20.5589	-0.228603	-0.22911	-0.00798346	2	-0.000734339	1.82909e-06
2	0	0	1	1	20.5889	-0.231602	-0.232082	-0.00835788	2	-0.000734584	1.93971e-06
2	0	0	1	1	20.6189	-0.234601	-0.235072	-0.0087222	2	-0.000734841	2.05034e-06
2	0	0	1	1	20.6489	-0.237599	-0.238074	-0.00911559	2	-0.000735109	2.17019e-06
2	0	0	1	1	20.6789	-0.240598	-0.241079	-0.00953043	2	-0.000735389	2.29758e-06
2	0	0	1	1	20.7089	-0.243597	-0.244093	-0.00993977	2	-0.000735681	2.42622e-06
2	0	0	0	1	20.7699	-0.249695	-0.250126	-0.0105384	2	-0.000736311	2.63593e-06
2	0	0	1	1	20.7997	-0.252694	-0.253152	-0.0110064	2	-0.00073664	2.7863e-06
2	0	0	1	1	20.8297	-0.255693	-0.256134	-0.0114548	2	-0.000736986	2.93396e-06
2	0	0	1	1	20.8597	-0.258692	-0.259146	-0.0119159	2	-0.000737344	3.08795e-06
2	0	0	1	1	20.8897	-0.261691	-0.262137	-0.01238	2	-0.000737717	3.24527e-06
2	0	0	1	1	20.9197	-0.26469	-0.265142	-0.0128674	2	-0.000738104	3.41169e-06
2	0	0	1	1	20.9497	-0.267689	-0.268135	-0.013325	2	-0.000738505	3.5729e-06
2	0	0	1	1	20.9797	-0.270688	-0.271143	-0.0138429	2	-0.00073892	3.75341e-06
2	0	0	1	1	21.0097	-0.273687	-0.274128	-0.0143218	2	-0.00073935	3.92602e-06
2	0	0	1	1	21.0397	-0.276686	-0.277121	-0.0147394	2	-0.000739795	4.0846e-06
2	0	0	1	1	21.0697	-0.279684	-0.280142	-0.0152677	2	-0.000740254	4.27713e-06
2	0	0	1	1	21.0997	-0.282683	-0.283116	-0.0157304	2	-0.000740727	4.45354e-06
2	0	0	1	1	21.1297	-0.285682	-0.286122	-0.0162393	2	-0.000741215	4.64644e-06
2	0	0	1	1	21.1597	-0.288681	-0.289113	-0.0167263	2	-0.000741718	4.83579e-06
2	0	0	1	1	21.1897	-0.29168	-0.292127	-0.0171975	2	-0.000742235	5.02386e-06
2	0	0	1	1	21.2197	-0.294679	-0.295114	-0.0177272	2	-0.000742767	5.23154e-06
2	0	0	1	1	21.2497	-0.297678	-0.298121	-0.0181721	2	-0.000743314	5.41748e-06
2	0	0	1	1	21.2797	-0.300677	-0.301118	-0.0186865	2	-0.000743875	5.62682e-06
2	0	0	1	1	21.3097	-0.303676	-0.304103	-0.019137	2	-0.000744451	5.81963e-06
2	0	0	1	1	21.3397	-0.306675	-0.307131	-0.0196488	2	-0.000745041	6.03477e-06
2	0	0	0	1	21.3695	-0.309674	-0.310119	-0.0201542	2	-0.000745643	6.2502e-06
2	0	0	0	1	21.3995	-0.312673	-0.313109	-0.020601	2	-0.000746262	6.45036e-06
2	0	0	0	1	21.4295	-0.315672	-0.316126	-0.0210905	2	-0.000746896	6.66726e-06
2	0	0	0	1	21.4595	-0.318671	-0.319125	-0.0215741	2	-0.000747544	6.88483e-06
2	0	0	0	1	21.4895	-0.321669	-0.322124	-0.0220479	2	-0.000748206	7.10215e-06
2	0	0	0	1	21.5195	-0.324668	-0.32512	-0.0225258	2	-0.000748883	7.32359e-06
2	0	0	0	1	21.5495	-0.327667	-0.328111	-0.0230351	2	-0.000749575	7.55808e-06
2	0	0	0	1	21.5795	-0.330666	-0.331111	-0.0234412	2	-0.000750281	7.76164e-06
2	0	0	0	1	21.6095	-0.333665	-0.334102	-0.0239803	2	-0.000751001	8.01187e-06
2	0	0	0	1	21.6395	-0.336664	-0.3371	-0.0244619	2	-0.000751735	8.24613e-06
2	0	0	0	1	21.6695	-0.339663	-0.340091	-0.0249261	2	-0.000752485	8.47714e-06
2	0	0	0	1	21.6995	-0.342662	-0.343107	-0.0254118	2	-0.000753248	8.71897e-06
2	0	0	0	1	21.7295	-0.345661	-0.346111	-0.0258956	2	-0.000754027	8.96276e-06
2	0	0	0	1	21.7595	-0.34866	-0.349106	-0.0263855	2	-0.00075482	9.21136e-06
2	0	0	0	1	21.7895	-0.351659	-0.352095	-0.0269204	2	-0.000755627	9.47855e-06
2	0	0	0	1	21.8195	-0.354658	-0.355117	-0.0273778	2	-0.00075645	9.72232e-06
2	0	0	0	1	21.8495	-0.357657	-0.358119	-0.0278927	2	-0.000757288	9.98891e-06
2	0	0	0	1	21.8795	-0.360655	-0.361089	-0.0284031	2	-0.00075814	1.0256e-05
2	0	0	0	1	21.9094	-0.363652	-0.364096	-0.0288925	2	-0.000759005	1.05196e-05
2	0	0	1	1	21.9393	-0.366653	-0.367101	-0.0293971	2	-0.000759885	1.07917e-05
2	0	0	1	1	21.9693	-0.369652	-0.370105	-0.0299164	2	-0.000760783	1.10722e-05
2	0	0	1	1	21.9993	-0.372651	-0.373109	-0.0303759	2	-0.000761696	1.13335e-05
2	0	0	1	1	22.0293	-0.37565	-0.376119	-0.0309665	2	-0.000762624	1.16471e-05
2	0	0	1	1	22.0593	-0.378649	-0.379103	-0.0314358	2	-0.000763568	1.19174e-05
2	0	0	1	1	22.0893	-0.381648	-0.382104	-0.0319322	2	-0.000764527	1.22014e-05
2	0	0	1	1	22.1193	-0.384647	-0.385089	-0.0324578	2	-0.000765501	1.24991e-05
2	0	0	1	1	22.1493	-0.387646	-0.388101	-0.0329861	2	-0.000766491	1.28019e-05
2	0	0	1	1	22.1793	-0.390645	-0.391081	-0.0334811	2	-0.000767495	1.30938e-05
2	0	0	1	1	22.2093	-0.393644	-0.394077	-0.0339874	2	-0.000768516	1.33937e-05
2	0	0	1	1	22.2393	-0.396643	-0.397112	-0.0345035	2	-0.000769552	1.37017e-05
2	0	0	1	1	22.2693	-0.399642	-0.400081	-0.0350133	2	-0.000770603	1.40082e-05
2	0	0	1	1	22.2993	-0.40264	-0.403087	-0.035531	2	-0.000771669	1.43221e-05
2	0	0	1	1	22.3293	-0.405639	-0.406081	-0.0360082	2	-0.00077275	1.46222e-05
2	0	0	1	1	22.3593	-0.408638	-0.409097	-0.0365348	2	-0.000773847	1.49463e-05
2	0	0	1	1	22.3893	-0.411637	-0.412088	-0.0370266	2	-0.000774958	1.52582e-05
2	0	0	1	1	22.4193	-0.414636	-0.415088	-0.0374865	2	-0.000776084	1.55602e-05
2	0	0	1	1	22.4493	-0.417635	-0.418095	-0.0379291	2	-0.000777224	1.5858e-05
2	0	0	0	1	22.4791	-0.420634	-0.421088	-0.0384862	2	-0.000778371	1.62061e-05
2	0	0	0	1	22.5091	-0.423633	-0.424099	-0.0389231	2	-0.00077954	1.65072e-05
2	0	0	0	1	22.5391	-0.426632	-0.427094	-0.0393875	2	-0.000780723	1.68222e-05
2	0	0	0	1	22.5691	-0.429631	-0.430087	-0.0398349	2	-0.000781919	1.71324e-05
2	0	0	0	1	22.5991	-0.43263	-0.433098	-0.0402842	2	-0.000783129	1.7447e-05
2	0	0	0	1	22.6291	-0.435629	-0.436081	-0.0406896	2	-0.000784352	1.77439e-05
2	0	0	0	1	22.6591	-0.438628	-0.439082	-0.0410952	2	-0.000785587	1.80442e-05
2	0	0	0	1	22.6891	-0.441627	-0.442076	-0.0414887	2	-0.000786835	1.83412e-05
2	0	0	0	1	22.7191	-0.444625	-0.445073	-0.0419533	2	-0.000788095	1.86723e-05
2	0	0	0	1	22.7491	-0.447624	-0.448087	-0.0423049	2	-0.000789367	1.89562e-05
2	0	0	0	1	22.7791	-0.450623	-0.451095	-0.0427064	2	-0.00079065	1.92646e-05
2	0	0	0	1	22.8091	-0.453622	-0.454082	-0.0430469	2	-0.000791945	1.95468e-05
2	0	0	0	1	22.8391	-0.456621	-0.457071	-0.0434133	2	-0.000793251	1.98429e-05
2	0	0	0	1	22.8691	-0.45962	-0.460083	-0.0437706	2	-0.000794568	2.01381e-05
2	0	0	0	1	22.8991	-0.462619	-0.463079	-0.0441237	2	-0.000795894	2.04328e-05
2	0	0	0	1	22.9291	-0.465618	-0.466077	-0.0444647	2	-0.000797231	2.0724e-05
2	0	0	0	1	22.9591	-0.468617	-0.469098	-0.0447909	2	-0.000798578	2.10113e-05
2	0	0	0	1	22.9891	-0.471616	-0.472082	-0.0450947	2	-0.000799934	2.12884e-05
2	0	0	0	1	23.0191	-0.474615	-0.475088	-0.0453709	2	-0.0008013	2.15552e-05
2	0	0	1	1	23.0489	-0.477614	-0.478076	-0.0457141	2	-0.000802665	2.18548e-05
2	0	0	1	1	23.0789	-0.480613	-0.481069	-0.0459704	2	-0.000804049	2.2115e-05
2	0	0	1	1	23.1089	-0.483612	-0.484068	-0.046247	2	-0.00080544	2.23867e-05
2	0	0	1	1	23.1389	-0.48661	-0.487055	-0.0464979	2	-0.00080684	2.2647e-05
2	0	0	1	1	23.1689	-0.489609	-0.490069	-0.0467573	2	-0.000808248	2.29143e-05
2	0	0	1	1	23.1989	-0.492608	-0.493068	-0.0470393	2	-0.000809664	2.31936e-05
2	0	0	1	1	23.2289	-0.495607	-0.496057	-0.0472787	2	-0.000811087	2.34529e-05
2	0	0	1	1	23.2589	-0.498606	-0.499073	-0.0475409	2	-0.000812518	2.37263e-05
2	0	0	1	1	23.2889	-0.501605	-0.502069	-0.0477714	2	-0.000813956	2.39845e-05
2	0	0	1	1	23.3189	-0.504604	-0.505069	-0.0480119	2	-0.000815401	2.42493e-05
2	0	0	1	1	23.3489	-0.507603	-0.508068	-0.0482609	2	-0.000816853	2.45198e-05
2	0	0	1	1	23.3789	-0.510602	-0.511066	-0.0484624	2	-0.000818312	2.47675e-05
2	0	0	1	1	23.4089	-0.513601	-0.514076	-0.048687	2	-0.000819777	2.50288e-05
2	0	0	1	1	23.4389	-0.5166	-0.517074	-0.0489103	2	-0.000821249	2.52903e-05
2	0	0	1	1	23.4689	-0.519599	-0.520071	-0.0491146	2	-0.000822728	2.55431e-05
2	0	0	1	1	23.4989	-0.522598	-0.523063	-0.0492807	2	-0.000824212	2.57769e-05
2	0	0	1	1	23.5289	-0.525597	-0.526065	-0.049529	2	-0.000825703	2.60555e-05
2	0	0	1	1	23.5589	-0.528596	-0.529059	-0.0497017	2	-0.0008272	2.62951e-05
2	0	0	1	1	23.5888	-0.531592	-0.532056	-0.0499242	2	-0.000828698	2.65625e-05
2	0	0	0	1	23.6187	-0.534593	-0.535058	-0.0501332	2	-0.000830202	2.68242e-05
2	0	0	0	1	23.6487	-0.537592	-0.538077	-0.0502923	2	-0.000831716	2.70611e-05
2	0	0	0	1	23.6787	-0.540591	-0.541052	-0.0504976	2	-0.000833236	2.73219e-05
2	0	0	0	1	23.7087	-0.54359	-0.544048	-0.0506508	2	-0.000834762	2.75565e-05
2	0	0	0	1	23.7387	-0.546589	-0.54705	-0.0508552	2	-0.000836294	2.78203e-05
2	0	0	0	1	23.7687	-0.549588	-0.550055	-0.0510478	2	-0.000837831	2.80791e-05
2	0	0	0	1	23.7987	-0.552587	-0.553059	-0.0512584	2	-0.000839373	2.8349e-05
2	0	0	0	1	23.8287	-0.555586	-0.556034	-0.0513838	2	-0.000840921	2.85711e-05
2	0	0	0	1	23.8587	-0.558585	-0.559059	-0.0515845	2	-0.000842474	2.88388e-05
2	0	0	0	1	23.8887	-0.561584	-0.562041	-0.0517764	2	-0.000844033	2.91005e-05
2	0	0	0	1	23.9187	-0.564583	-0.565037	-0.0519491	2	-0.000845596	2.93532e-05
2	0	0	0	1	23.9487	-0.567582	-0.568048	-0.0521267	2	-0.000847165	2.96105e-05
2	0	0	0	1	23.9787	-0.570581	-0.571033	-0.0522712	2	-0.000848739	2.98486e-05
2	0	0	0	1	24.0087	-0.573579	-0.574025	-0.0524543	2	-0.000850319	3.01101e-05
2	0	0	0	1	24.0387	-0.576578	-0.577056	-0.0526242	2	-0.000851904	3.03671e-05
2	0	0	0	1	24.0687	-0.579577	-0.580044	-0.0528137	2	-0.000853494	3.06342e-05
2	0	0	0	1	24.0987	-0.582576	-0.583032	-0.0529531	2	-0.000855089	3.08734e-05
2	0	0	0	1	24.1287	-0.585575	-0.586046	-0.053135	2	-0.000856689	3.11396e-05
2	0	0	1	1	24.1585	-0.588574	-0.589026	-0.0533388	2	-0.000858285	3.14179e-05
2	0	0	1	1	24.1885	-0.591573	-0.592043	-0.0535203	2	-0.000859895	3.16864e-05
2	0	0	1	1	24.2185	-0.594572	-0.595019	-0.0536515	2	-0.000861512	3.19236e-05
2	0	0	1	1	24.2485	-0.597571	-0.598014	-0.0538637	2	-0.000863133	3.22113e-05
2	0	0	1	1	24.2785	-0.60057	-0.601049	-0.0540486	2	-0.00086476	3.24859e-05
2	0	0	1	1	24.3085	-0.603569	-0.604047	-0.0542376	2	-0.000866392	3.27621e-05
2	0	0	1	1	24.3385	-0.606568	-0.607036	-0.0544014	2	-0.00086803	3.30236e-05
2	0	0	1	1	24.3685	-0.609567	-0.610024	-0.0546039	2	-0.000869672	3.33097e-05
2	0	0	1	1	24.3985	-0.612566	-0.613017	-0.054778	2	-0.000871321	3.35799e-05
2	0	0	1	1	24.4285	-0.615564	-0.616041	-0.0549445	2	-0.000872975	3.38481e-05
2	0	0	1	1	24.4585	-0.618563	-0.619042	-0.0551358	2	-0.000874634	3.41314e-05
2	0	0	1	1	24.4885	-0.621562	-0.622027	-0.055342	2	-0.000876299	3.44242e-05
2	0	0	1	1	24.5185	-0.624561	-0.625032	-0.0555424	2	-0.00087797	3.47158e-05
2	0	0	1	1	24.5485	-0.62756	-0.628045	-0.0557367	2	-0.000879647	3.50052e-05
2	0	0	1	1	24.5785	-0.630559	-0.631041	-0.055884	2	-0.000881329	3.52651e-05
2	0	0	1	1	24.6085	-0.633558	-0.634041	-0.0560774	2	-0.000883017	3.55553e-05
2	0	0	1	1	24.6385	-0.636557	-0.637019	-0.0562899	2	-0.000884712	3.58577e-05
2	0	0	1	1	24.6685	-0.639556	-0.640022	-0.0564759	2	-0.000886412	3.61458e-05
2	0	0	1	1	24.6985	-0.642555	-0.643015	-0.0567379	2	-0.000888119	3.64833e-05
2	0	0	0	1	24.7283	-0.645554	-0.646014	-0.056955	2	-0.000889821	3.67937e-05
2	0	0	0	1	24.7583	-0.648553	-0.649021	-0.0571739	2	-0.000891541	3.71071e-05
2	0	0	0	1	24.7883	-0.651552	-0.652007	-0.0573926	2	-0.000893268	3.74204e-05
2	0	0	0	1	24.8183	-0.654551	-0.65502	-0.0576367	2	-0.000895002	3.77532e-05
2	0	0	0	1	24.8483	-0.657549	-0.658024	-0.0578512	2	-0.000896742	3.80675e-05
2	0	0	0	1	24.8783	-0.660548	-0.661008	-0.0581025	2	-0.00089849	3.84062e-05
2	0	0	0	1	24.9083	-0.663547	-0.664015	-0.0583535	2	-0.000900245	3.87476e-05
2	0	0	0	1	24.9383	-0.666546	-0.667012	-0.0586178	2	-0.000902008	3.90988e-05
2	0	0	0	1	24.9683	-0.669545	-0.670017	-0.0588742	2	-0.000903778	3.94467e-05
2	0	0	0	1	24.9983	-0.672544	-0.673001	-0.0591248	2	-0.000905556	3.97911e-05
2	0	0	0	1	25.0283	-0.675543	-0.676008	-0.059436	2	-0.000907343	4.01792e-05
2	0	0	0	1	25.0583	-0.678542	-0.679011	-0.0596877	2	-0.000909138	4.05286e-05
2	0	0	0	1	25.0883	-0.681541	-0.682	-0.0600035	2	-0.000910942	4.09224e-05
2	0	0	0	1	25.1183	-0.68454	-0.685006	-0.0603262	2	-0.000912755	4.13238e-05
2	0	0	0	1	25.1483	-0.687539	-0.688003	-0.0606149	2	-0.000914577	4.17032e-05
2	0	0	0	1	25.1783	-0.690538	-0.690992	-0.0609547	2	-0.000916408	4.21192e-05
2	0	0	0	1	25.2083	-0.693537	-0.694011	-0.061289	2	-0.000918249	4.25352e-05
2	0	0	0	1	25.2383	-0.696536	-0.696989	-0.0616067	2	-0.0009201	4.29392e-05
2	0	0	0	1	25.2682	-0.699534	-0.699988	-0.0620149	2	-0.000921956	4.34096e-05
2	0	0	1	1	25.2981	-0.702533	-0.702986	-0.0623408	2	-0.000923822	4.38247e-05
2	0	0	1	1	25.3281	-0.705532	-0.705976	-0.0626836	2	-0.000925706	4.42531e-05
2	0	0	1	1	25.3581	-0.708531	-0.708977	-0.0631252	2	-0.000927601	4.47543e-05
2	0	0	1	1	25.3881	-0.71153	-0.711987	-0.0635422	2	-0.000929508	4.52412e-05
2	0	0	1	1	25.4181	-0.714529	-0.714988	-0.0639218	2	-0.000931427	4.57033e-05
2	0	0	1	1	25.4481	-0.717528	-0.717988	-0.0643484	2	-0.00093336	4.62013e-05
2	0	0	1	1	25.4781	-0.720527	-0.720982	-0.0647877	2	-0.000935305	4.67108e-05
2	0	0	1	1	25.5081	-0.723526	-0.723982	-0.0652544	2	-0.000937264	4.7243e-05
2	0	0	1	1	25.5381	-0.726525	-0.726982	-0.0657332	2	-0.000939236	4.77869e-05
2	0	0	1	1	25.5681	-0.729524	-0.729975	-0.0661838	2	-0.000941224	4.83125e-05
2	0	0	1	1	25.5981	-0.732523	-0.732995	-0.0667376	2	-0.000943227	4.89184e-05
2	0	0	1	1	25.6281	-0.735522	-0.73599	-0.0672828	2	-0.000945245	4.95194e-05
2	0	0	1	1	25.6581	-0.738521	-0.739001	-0.0678785	2	-0.00094728	5.01623e-05
2	0	0	1	1	25.6881	-0.741519	-0.741968	-0.0683986	2	-0.000949331	5.07496e-05
2	0	0	1	1	25.7181	-0.744518	-0.744986	-0.0689822	2	-0.000951401	5.13908e-05
2	0	0	1	1	25.7481	-0.747517	-0.747981	-0.0696186	2	-0.000953488	5.20734e-05
2	0	0	1	1	25.7781	-0.750516	-0.750982	-0.070301	2	-0.000955594	5.27948e-05
2	0	0	1	1	25.8081	-0.753515	-0.753984	-0.0709719	2	-0.000957721	5.35116e-05
2	0	0	0	1	25.8379	-0.756514	-0.756961	-0.0716531	2	-0.000959854	5.42386e-05
2	0	0	0	1	25.8679	-0.759513	-0.759981	-0.0724187	2	-0.000962023	5.50369e-05
2	0	0	0	1	25.8979	-0.762512	-0.762956	-0.0731638	2	-0.000964215	5.58208e-05
2	0	0	0	1	25.9279	-0.765511	-0.765974	-0.0739745	2	-0.00096643	5.66626e-05
2	0	0	0	1	25.9579	-0.76851	-0.768979	-0.0748303	2	-0.000968669	5.7543e-05
2	0	0	0	1	25.9879	-0.771509	-0.77198	-0.0756676	2	-0.000970935	5.84139e-05
2	0	0	0	1	26.0179	-0.774508	-0.774977	-0.0765954	2	-0.000973227	5.93597e-05
2	0	0	0	1	26.0479	-0.777507	-0.777976	-0.0775498	2	-0.000975547	6.03318e-05
2	0	0	0	1	26.0779	-0.780505	-0.78097	-0.0785354	2	-0.000977897	6.13338e-05
2	0	0	0	1	26.1079	-0.783504	-0.783972	-0.0796075	2	-0.000980277	6.24101e-05
2	0	0	0	1	26.1379	-0.786503	-0.78697	-0.0806559	2	-0.000982689	6.34738e-05
2	0	0	0	1	26.1679	-0.789502	-0.789956	-0.0817876	2	-0.000985135	6.46086e-05
2	0	0	0	1	26.1979	-0.792501	-0.79296	-0.0829856	2	-0.000987615	6.58042e-05
2	0	0	0	1	26.2279	-0.7955	-0.795958	-0.0842592	2	-0.000990132	6.70667e-05
2	0	0	0	1	26.2579	-0.798499	-0.798946	-0.0855494	2	-0.000992687	6.83494e-05
2	0	0	0	1	26.2879	-0.801498	-0.801957	-0.0868923	2	-0.000995282	6.96839e-05
2	0	0	0	1	26.3179	-0.804497	-0.804962	-0.0883338	2	-0.000997918	7.11054e-05
2	0	0	0	1	26.3479	-0.807496	-0.80797	-0.0897759	2	-0.0010006	7.25362e-05
2	0	0	0	1	26.3779	-0.810495	-0.81097	-0.0912835	2	-0.00100332	7.40282e-05
2	0	0	1	1	26.4077	-0.813494	-0.813935	-0.0929464	2	-0.00100608	7.56523e-05
2	0	0	1	1	26.4377	-0.816493	-0.81696	-0.0945785	2	-0.0010089	7.72669e-05
2	0	0	1	1	26.4677	-0.819492	-0.81996	-0.0962673	2	-0.00101177	7.89353e-05
2	0	0	1	1	26.4977	-0.822491	-0.822965	-0.0981007	2	-0.00101469	8.07334e-05
2	0	0	1	1	26.5277	-0.825489	-0.825953	-0.0999545	2	-0.00101767	8.25577e-05
2	0	0	1	1	26.5577	-0.828488	-0.828965	-0.101894	2	-0.00102071	8.44664e-05
2	0	0	0	1	26.6187	-0.834586	-0.834991	-0.105731	2	-0.00102703	8.82846e-05
2	0	0	0	1	26.6487	-0.837585	-0.837991	-0.107866	2	-0.00103025	9.03907e-05
2	0	0	0	1	26.6787	-0.840584	-0.840978	-0.110188	2	-0.00103354	9.2666e-05
2	0	0	0	1	26.7087	-0.843583	-0.844	-0.112568	2	-0.00103689	9.50071e-05
2	0	0	0	1	26.7387	-0.846582	-0.847002	-0.115008	2	-0.00104032	9.74123e-05
2	0	0	0	1	26.7687	-0.849581	-0.849992	-0.117492	2	-0.00104382	9.98673e-05
2	0	0	0	1	26.7987	-0.85258	-0.852994	-0.12012	2	-0.0010474	0.000102462
2	0	0	0	1	26.8287	-0.855579	-0.855992	-0.122831	2	-0.00105106	0.000105142
2	0	0	0	1	26.8587	-0.858578	-0.859006	-0.125715	2	-0.0010548	0.00010799
2	0	0	0	1	26.8887	-0.861576	-0.862	-0.128554	2	-0.00105863	0.000110814
2	0	0	0	1	26.9187	-0.864575	-0.864985	-0.131594	2	-0.00106255	0.000113826
2	0	0	0	1	26.9486	-0.867577	-0.867993	-0.134756	2	-0.00106654	0.000116968
2	0	0	1	1	26.9785	-0.870573	-0.871005	-0.137984	2	-0.00107064	0.000120185
2	0	0	1	1	27.0085	-0.873572	-0.873982	-0.141373	2	-0.00107484	0.000123557
2	0	0	1	1	27.0385	-0.876571	-0.876978	-0.144843	2	-0.00107915	0.000127024
2	0	0	1	1	27.0685	-0.87957	-0.879978	-0.148466	2	-0.00108356	0.000130647
2	0	0	1	1	27.0985	-0.882569	-0.88298	-0.15221	2	-0.00108809	0.000134399
2	0	0	1	1	27.1285	-0.885568	-0.885986	-0.156068	2	-0.00109272	0.000138274
2	0	0	1	1	27.1585	-0.888567	-0.888963	-0.16003	2	-0.00109748	0.00014226
2	0	0	1	1	27.1885	-0.891566	-0.891983	-0.16422	2	-0.00110236	0.000146482
2	0	0	1	1	27.2185	-0.894565	-0.894974	-0.168527	2	-0.00110737	0.000150828
2	0	0	1	1	27.2485	-0.897564	-0.897967	-0.172865	2	-0.0011125	0.000155227
2	1	0	0	0	27.2734	-0.900013	-0.900403	-0.176522	2	-0.00111686	0.000158941
2	1	0	1	0	27.2989	-0.897464	-0.897867	-0.168292	2	-0.00112123	0.000151104
2	1	0	1	0	27.3289	-0.894465	-0.894872	-0.161821	2	-0.00112616	0.000144809
2	1	0	1	0	27.3589	-0.891466	-0.891882	-0.155968	2	-0.00113091	0.000139105
2	1	0	1	0	27.3889	-0.888467	-0.888887	-0.150688	2	-0.00113549	0.000133945
2	1	0	1	0	27.4189	-0.885468	-0.885877	-0.145497	2	-0.00113992	0.000128893
2	1	0	1	0	27.4489	-0.882469	-0.88288	-0.140609	2	-0.00114419	0.000124141
2	1	0	1	0	27.4789	-0.87947	-0.879878	-0.136001	2	-0.00114833	0.000119664
2	1	0	1	0	27.5089	-0.876471	-0.876876	-0.131521	2	-0.00115232	0.000115328
2	1	0	1	0	27.5389	-0.873472	-0.873888	-0.127302	2	-0.00115619	0.000111248
2	1	0	1	0	27.5689	-0.870473	-0.870886	-0.123219	2	-0.00115993	0.000107309
2	1	0	1	0	27.5988	-0.867472	-0.867878	-0.119252	2	-0.00116354	0.000103496
2	1	0	0	0	27.6287	-0.864475	-0.864884	-0.115511	2	-0.00116704	9.99034e-05
2	1	0	0	0	27.6587	-0.861476	-0.861877	-0.111867	2	-0.00117043	9.64153e-05
2	1	0	0	0	27.6887	-0.858478	-0.858881	-0.108402	2	-0.00117372	9.3104e-05
2	1	0	0	0	27.7187	-0.855479	-0.855886	-0.104986	2	-0.00117691	8.98561e-05
2	1	0	0	0	27.7487	-0.85248	-0.85289	-0.101753	2	-0.00117999	8.67839e-05
2	1	0	0	0	27.7787	-0.849481	-0.849886	-0.0986659	2	-0.00118298	8.38548e-05
2	1	0	0	0	27.8087	-0.846482	-0.846897	-0.0956219	2	-0.00118588	8.09819e-05
2	1	0	0	0	27.8387	-0.843483	-0.843896	-0.0927467	2	-0.00118869	7.82686e-05
2	1	0	0	0	27.8687	-0.840484	-0.840897	-0.0899571	2	-0.00119142	7.56447e-05
2	1	0	0	0	27.8987	-0.837485	-0.837892	-0.0872955	2	-0.00119406	7.31442e-05
2	1	0	0	0	27.9287	-0.834486	-0.834895	-0.084716	2	-0.00119663	7.0729e-05
2	1	0	0	0	27.9587	-0.831487	-0.831911	-0.0822406	2	-0.00119912	6.84168e-05
2	1	0	0	0	27.9887	-0.828488	-0.828893	-0.0798138	2	-0.00120153	6.61571e-05
2	1	0	0	0	28.0187	-0.825489	-0.825891	-0.0775259	2	-0.00120388	6.40279e-05
2	1	0	0	0	28.0487	-0.82249	-0.822899	-0.0752895	2	-0.00120616	6.19557e-05
2	1	0	0	0	28.0787	-0.819492	-0.819902	-0.0730895	2	-0.00120837	5.99262e-05
2	1	0	0	0	28.1087	-0.816493	-0.816889	-0.071081	2	-0.00121051	5.80653e-05
2	1	0	0	0	28.1387	-0.813494	-0.813909	-0.0690192	2	-0.0012126	5.61753e-05
2	1	0	1	0	28.1685	-0.810495	-0.810894	-0.067086	2	-0.00121461	5.43996e-05
2	1	0	1	0	28.1985	-0.807496	-0.807892	-0.065335	2	-0.00121659	5.27836e-05
2	1	0	1	0	28.2285	-0.804497	-0.804894	-0.0634614	2	-0.0012185	5.10797e-05
2	1	0	1	0	28.2585	-0.801498	-0.801881	-0.0618075	2	-0.00122037	4.95622e-05
2	1	0	1	0	28.2885	-0.798499	-0.79889	-0.0601601	2	-0.00122218	4.80613e-05
2	1	0	1	0	28.3185	-0.7955	-0.795909	-0.0585077	2	-0.00122395	4.65668e-05
2	1	0	1	0	28.3485	-0.792501	-0.792906	-0.0570399	2	-0.00122567	4.52273e-05
2	1	0	1	0	28.3785	-0.789502	-0.789901	-0.0555594	2	-0.00122734	4.38864e-05
2	1	0	1	0	28.4085	-0.786503	-0.786904	-0.0541277	2	-0.00122897	4.25933e-05
2	1	0	1	0	28.4385	-0.783504	-0.783917	-0.0528159	2	-0.00123056	4.14033e-05
2	1	0	1	0	28.4685	-0.780505	-0.780899	-0.0514754	2	-0.00123211	4.01971e-05
2	1	0	1	0	28.4985	-0.777507	-0.777909	-0.0502532	2	-0.00123362	3.90924e-05
2	1	0	1	0	28.5285	-0.774508	-0.774926	-0.0490544	2	-0.0012351	3.80135e-05
2	1	0	1	0	28.5585	-0.771509	-0.771923	-0.0478772	2	-0.00123654	3.69575e-05
2	1	0	1	0	28.5885	-0.76851	-0.768905	-0.0467378	2	-0.00123794	3.59369e-05
2	1	0	0	0	28.6495	-0.762412	-0.762821	-0.0445429	2	-0.00124069	3.39782e-05
2	1	0	0	0	28.6795	-0.759413	-0.759819	-0.0435926	2	-0.00124201	3.31225e-05
2	1	0	0	0	28.7095	-0.756414	-0.756835	-0.0426514	2	-0.00124329	3.22801e-05
2	1	0	1	0	28.7393	-0.753415	-0.753819	-0.0417228	2	-0.00124454	3.14514e-05
2	1	0	1	0	28.7693	-0.750416	-0.750812	-0.0408766	2	-0.00124577	3.06906e-05
2	1	0	1	0	28.7993	-0.747417	-0.747813	-0.0400241	2	-0.00124697	2.99305e-05
2	1	0	1	0	28.8293	-0.744418	-0.744809	-0.0392367	2	-0.00124816	2.92238e-05
2	1	0	1	0	28.8593	-0.741419	-0.741836	-0.0384587	2	-0.00124931	2.853e-05
2	1	0	1	0	28.8893	-0.738421	-0.738814	-0.037734	2	-0.00125045	2.78784e-05
2	1	0	1	0	28.9193	-0.735422	-0.735834	-0.0370344	2	-0.00125156	2.72512e-05
2	1	0	1	0	28.9493	-0.732423	-0.732845	-0.0363554	2	-0.00125265	2.66429e-05
2	1	0	1	0	28.9793	-0.729424	-0.729832	-0.0357168	2	-0.00125373	2.60672e-05
2	1	0	1	0	29.0093	-0.726425	-0.72683	-0.0350893	2	-0.00125478	2.5504e-05
2	1	0	1	0	29.0393	-0.723426	-0.723836	-0.0344937	2	-0.00125581	2.49677e-05
2	1	0	1	0	29.0693	-0.720427	-0.720836	-0.0338878	2	-0.00125683	2.44275e-05
2	1	0	1	0	29.0993	-0.717428	-0.717821	-0.0333374	2	-0.00125783	2.39303e-05
2	1	0	1	0	29.1293	-0.714429	-0.714825	-0.0328144	2	-0.00125882	2.34566e-05
2	1	0	1	0	29.1593	-0.71143	-0.711838	-0.0323499	2	-0.00125979	2.30279e-05
2	1	0	1	0	29.1893	-0.708431	-0.708843	-0.0318923	2	-0.00126074	2.26066e-05
2	1	0	1	0	29.2193	-0.705432	-0.705829	-0.0313587	2	-0.00126168	2.21339e-05
2	1	0	1	0	29.2493	-0.702433	-0.702824	-0.030919	2	-0.00126261	2.17306e-05
2	1	0	1	0	29.2792	-0.69943	-0.699823	-0.0304832	2	-0.00126352	2.13329e-05
2	1	0	0	0	29.3091	-0.696436	-0.696836	-0.0301	2	-0.00126442	2.09748e-05
2	1	0	0	0	29.3391	-0.693437	-0.693832	-0.0296918	2	-0.00126531	2.06011e-05
2	1	0	0	0	29.3691	-0.690438	-0.690822	-0.0293392	2	-0.00126619	2.02682e-05
2	1	0	0	0	29.3991	-0.687439	-0.687838	-0.0289802	2	-0.00126705	1.99337e-05
2	1	0	0	0	29.4291	-0.68444	-0.684843	-0.0286251	2	-0.00126791	1.96037e-05
2	1	0	0	0	29.4591	-0.681441	-0.681852	-0.0283077	2	-0.00126875	1.93017e-05
2	1	0	0	0	29.4891	-0.678442	-0.678844	-0.0280021	2	-0.00126959	1.90091e-05
2	1	0	0	0	29.5191	-0.675443	-0.675847	-0.0276609	2	-0.00127042	1.86945e-05
2	1	0	0	0	29.5491	-0.672444	-0.672841	-0.0273471	2	-0.00127123	1.84003e-05
2	1	0	0	0	29.5791	-0.669445	-0.66986	-0.0270476	2	-0.00127204	1.81181e-05
2	1	0	0	0	29.6091	-0.666446	-0.666844	-0.0267417	2	-0.00127284	1.78326e-05
2	1	0	0	0	29.6391	-0.663447	-0.663841	-0.0264978	2	-0.00127363	1.75903e-05
2	1	0	0	0	29.6691	-0.660448	-0.660824	-0.0261942	2	-0.00127441	1.73098e-05
2	1	0	0	0	29.6991	-0.657449	-0.657856	-0.0259864	2	-0.00127519	1.70953e-05
2	1	0	0	0	29.7291	-0.654451	-0.654863	-0.0257078	2	-0.00127595	1.68351e-05
2	1	0	0	0	29.7591	-0.651452	-0.651851	-0.0254574	2	-0.00127671	1.65944e-05
2	1	0	0	0	29.7891	-0.648453	-0.648844	-0.025184	2	-0.00127746	1.63405e-05
2	1	0	0	0	29.8191	-0.645454	-0.645841	-0.0249904	2	-0.00127821	1.61398e-05
2	1	0	1	0	29.8489	-0.642455	-0.642853	-0.0247356	2	-0.00127894	1.59013e-05
2	1	0	1	0	29.8789	-0.639456	-0.639861	-0.0245164	2	-0.00127967	1.56871e-05
2	1	0	1	0	29.9089	-0.636457	-0.636869	-0.0242859	2	-0.0012804	1.54669e-05
2	1	0	1	0	29.9389	-0.633458	-0.63387	-0.0240862	2	-0.00128111	1.52675e-05
2	1	0	1	0	29.9689	-0.630459	-0.630867	-0.0238572	2	-0.00128183	1.50507e-05
2	1	0	1	0	29.9989	-0.62746	-0.627865	-0.0236658	2	-0.00128253	1.48589e-05
2	1	0	1	0	30.0289	-0.624461	-0.624867	-0.0234309	2	-0.00128323	1.46412e-05
2	1	0	1	0	30.0589	-0.621462	-0.621856	-0.0232318	2	-0.00128392	1.44469e-05
2	1	0	1	0	30.0889	-0.618463	-0.618884	-0.0230279	2	-0.00128461	1.42516e-05
2	1	0	1	0	30.1189	-0.615464	-0.615872	-0.0227945	2	-0.00128528	1.40385e-05
2	1	0	1	0	30.1489	-0.612465	-0.612866	-0.0226102	2	-0.00128596	1.3857e-05
2	1	0	1	0	30.1789	-0.609467	-0.609857	-0.0224057	2	-0.00128662	1.36643e-05
2	1	0	1	0	30.2089	-0.606468	-0.606863	-0.0221936	2	-0.00128729	1.34685e-05
2	1	0	1	0	30.2389	-0.603469	-0.603871	-0.0220121	2	-0.00128794	1.32925e-05
2	1	0	1	0	30.2689	-0.60047	-0.600871	-0.021775	2	-0.00128859	1.3084e-05
2	1	0	1	0	30.2989	-0.597471	-0.597878	-0.0215716	2	-0.00128923	1.28972e-05
2	1	0	1	0	30.3289	-0.594472	-0.59488	-0.0214066	2	-0.00128987	1.27344e-05
2	1	0	1	0	30.3589	-0.591473	-0.591861	-0.0212119	2	-0.0012905	1.25545e-05
2	1	0	1	0	30.3889	-0.588474	-0.588872	-0.021008	2	-0.00129112	1.2371e-05
2	1	0	0	0	30.4187	-0.585475	-0.585877	-0.020756	2	-0.00129174	1.21605e-05
2	1	0	0	0	30.4487	-0.582476	-0.582877	-0.0205918	2	-0.00129235	1.20025e-05
2	1	0	0	0	30.4787	-0.579477	-0.579887	-0.0203415	2	-0.00129296	1.17958e-05
2	1	0	0	0	30.5087	-0.576478	-0.576872	-0.0201769	2	-0.00129356	1.16395e-05
2	1	0	0	0	30.5387	-0.573479	-0.573877	-0.0199721	2	-0.00129415	1.14615e-05
2	1	0	0	0	30.5687	-0.570481	-0.570871	-0.0197807	2	-0.00129474	1.12922e-05
2	1	0	0	0	30.5987	-0.567482	-0.567878	-0.0195506	2	-0.00129532	1.11023e-05
2	1	0	0	0	30.6287	-0.564483	-0.56487	-0.0193385	2	-0.00129589	1.09237e-05
2	1	0	0	0	30.6587	-0.561484	-0.56188	-0.0191354	2	-0.00129646	1.07518e-05
2	1	0	0	0	30.6887	-0.558485	-0.558892	-0.018928	2	-0.00129703	1.05787e-05
2	1	0	0	0	30.7187	-0.555486	-0.555899	-0.0187434	2	-0.00129758	1.04194e-05
2	1	0	0	0	30.7487	-0.552487	-0.552886	-0.0184885	2	-0.00129813	1.0222e-05
2	1	0	0	0	30.7787	-0.549488	-0.549918	-0.0182952	2	-0.00129868	1.00608e-05
2	1	0	0	0	30.8087	-0.546489	-0.546871	-0.018034	2	-0.00129921	9.86226e-06
2	1	0	0	0	30.8387	-0.54349	-0.543887	-0.0178496	2	-0.00129974	9.70818e-06
2	1	0	0	0	30.8687	-0.540491	-0.540908	-0.0176416	2	-0.00130027	9.54246e-06
2	1	0	0	0	30.8987	-0.537492	-0.537892	-0.0174251	2	-0.00130078	9.37281e-06
2	1	0	0	0	30.9287	-0.534493	-0.534915	-0.0171905	2	-0.0013013	9.19542e-06
2	1	0	0	0	30.9586	-0.531488	-0.531908	-0.0169364	2	-0.0013018	9.00858e-06
2	1	0	1	0	30.9885	-0.528496	-0.528921	-0.0167195	2	-0.00130229	8.84332e-06
2	1	0	1	0	31.0185	-0.525497	-0.525921	-0.0164893	2	-0.00130278	8.67209e-06
2	1	0	1	0	31.0485	-0.522498	-0.522897	-0.0162467	2	-0.00130327	8.49538e-06
2	1	0	1	0	31.0785	-0.519499	-0.519902	-0.0160489	2	-0.00130374	8.34384e-06
2	1	0	1	0	31.1085	-0.5165	-0.51689	-0.015805	2	-0.00130421	8.16942e-06
2	1	0	1	0	31.1385	-0.513501	-0.513899	-0.0155707	2	-0.00130468	8.00179e-06
2	1	0	1	0	31.1685	-0.510502	-0.510917	-0.0153333	2	-0.00130513	7.83406e-06
2	1	0	1	0	31.1985	-0.507503	-0.507901	-0.0151152	2	-0.00130558	7.67702e-06
2	1	0	1	0	31.2285	-0.504504	-0.504903	-0.0148653	2	-0.00130602	7.50551e-06
2	1	0	1	0	31.2585	-0.501505	-0.501913	-0.0146338	2	-0.00130646	7.34488e-06
2	1	0	1	0	31.2885	-0.498506	-0.498918	-0.0143912	2	-0.00130688	7.18004e-06
2	1	0	1	0	31.3185	-0.495507	-0.495894	-0.0141373	2	-0.0013073	7.01063e-06
2	1	0	1	0	31.3485	-0.492508	-0.492879	-0.0138898	2	-0.00130771	6.846e-06
2	1	0	1	0	31.3785	-0.489509	-0.48992	-0.0136168	2	-0.00130812	6.67113e-06
2	1	0	1	0	31.4085	-0.486511	-0.486906	-0.0134156	2	-0.00130852	6.53216e-06
2	1	0	1	0	31.4385	-0.483512	-0.483907	-0.0131494	2	-0.00130891	6.36307e-06
2	1	0	1	0	31.4685	-0.480513	-0.480907	-0.0128677	2	-0.00130929	6.18817e-06
2	1	0	1	0	31.4985	-0.477514	-0.477919	-0.0126138	2	-0.00130966	6.02837e-06
2	1	0	0	0	31.5283	-0.474515	-0.474916	-0.0123554	2	-0.00131003	5.86776e-06
2	1	0	0	0	31.5583	-0.471516	-0.47191	-0.0120533	2	-0.00131038	5.68808e-06
2	1	0	0	0	31.5883	-0.468517	-0.46892	-0.0118049	2	-0.00131073	5.53556e-06
2	1	0	0	0	31.6183	-0.465518	-0.465923	-0.0115534	2	-0.00131108	5.38301e-06
2	1	0	0	0	31.6483	-0.462519	-0.462942	-0.0112645	2	-0.00131141	5.21479e-06
2	1	0	0	0	31.6783	-0.45952	-0.459916	-0.010973	2	-0.00131173	5.04666e-06
2	1	0	0	0	31.7083	-0.456521	-0.456914	-0.0106928	2	-0.00131205	4.88567e-06
2	1	0	0	0	31.7383	-0.453522	-0.453916	-0.0103928	2	-0.00131236	4.71747e-06
2	1	0	0	0	31.7683	-0.450523	-0.450926	-0.0101088	2	-0.00131266	4.55832e-06
2	1	0	0	0	31.7983	-0.447524	-0.447921	-0.00979443	2	-0.00131295	4.38713e-06
2	1	0	0	0	31.8283	-0.444526	-0.444928	-0.00952208	2	-0.00131323	4.23664e-06
2	1	0	0	0	31.8583	-0.441527	-0.441933	-0.00922415	2	-0.0013135	4.07646e-06
2	1	0	0	0	31.8883	-0.438528	-0.438916	-0.00891883	2	-0.00131377	3.91462e-06
2	1	0	0	0	31.9183	-0.435529	-0.435935	-0.00861075	2	-0.00131402	3.75373e-06
2	1	0	0	0	31.9483	-0.43253	-0.432933	-0.00830687	2	-0.00131427	3.59632e-06
2	1	0	0	0	31.9783	-0.429531	-0.429928	-0.00799541	2	-0.00131451	3.43745e-06
2	1	0	0	0	32.0083	-0.426532	-0.42694	-0.00769847	2	-0.00131473	3.28679e-06
2	1	0	0	0	32.0383	-0.423533	-0.42395	-0.00735996	2	-0.00131495	3.12026e-06
2	1	0	0	0	32.0683	-0.420534	-0.420932	-0.0070264	2	-0.00131516	2.95764e-06
2	1	0	1	0	32.0981	-0.417535	-0.417953	-0.00672227	2	-0.00131536	2.8096e-06
2	1	0	1	0	32.1281	-0.414536	-0.414931	-0.00646079	2	-0.00131555	2.68078e-06
2	1	0	1	0	32.1581	-0.411537	-0.411951	-0.00612511	2	-0.00131573	2.52324e-06
2	1	0	1	0	32.1881	-0.408538	-0.408935	-0.00579628	2	-0.0013159	2.3703e-06
2	1	0	1	0	32.2181	-0.405539	-0.405928	-0.00551875	2	-0.00131606	2.24022e-06
2	1	0	1	0	32.2481	-0.402541	-0.402924	-0.00517439	2	-0.00131621	2.08489e-06
2	1	0	1	0	32.2781	-0.399542	-0.399931	-0.00488523	2	-0.00131635	1.95376e-06
2	1	0	1	0	32.3081	-0.396543	-0.396932	-0.0045242	2	-0.00131648	1.7958e-06
2	1	0	1	0	32.3536	-0.391994	-0.392378	-0.00397506	2	-0.00131667	1.55972e-06
2	1	0	0	0	32.3991	-0.387446	-0.387825	-0.0033338	2	-0.00131684	1.29293e-06
2	1	0	0	0	32.4291	-0.384447	-0.384809	-0.00301673	2	-0.00131693	1.16087e-06
2	1	0	0	0	32.4591	-0.381448	-0.381833	-0.00269665	2	-0.00131702	1.02967e-06
2	1	0	0	0	32.4891	-0.378449	-0.378817	-0.00239201	2	-0.00131709	9.06136e-07
2	1	0	0	0	32.5191	-0.37545	-0.375827	-0.00208573	2	-0.00131716	7.83871e-07
2	1	0	0	0	32.5491	-0.372451	-0.37282	-0.00177031	2	-0.00131722	6.60008e-07
2	1	0	0	0	32.5791	-0.369452	-0.369822	-0.00146011	2	-0.00131727	5.3998e-07
2	1	0	0	0	32.6091	-0.366453	-0.366812	-0.00117004	2	-0.0013173	4.29184e-07
2	1	0	0	0	32.639	-0.363445	-0.363805	-0.000832487	2	-0.00131733	3.02863e-07
2	1	0	1	0	32.6689	-0.360456	-0.360824	-0.000564637	2	-0.00131736	2.03735e-07
2	1	0	1	0	32.6989	-0.357457	-0.357824	-0.000259127	2	-0.00131737	9.27218e-08
2	1	0	1	0	32.7289	-0.354458	-0.354805	4.29669e-05	2	-0.00131737	1.52449e-08
2	1	0	1	0	32.7589	-0.351459	-0.351832	0.000347029	2	-0.00131736	1.22096e-07
2	1	0	1	0	32.7889	-0.34846	-0.348837	0.00063439	2	-0.00131735	2.21298e-07
2	1	0	1	0	32.8189	-0.345461	-0.345841	0.000925255	2	-0.00131733	3.19991e-07
2	1	0	1	0	32.8489	-0.342462	-0.342814	0.00122699	2	-0.00131729	4.20628e-07
2	1	0	1	0	32.8789	-0.339463	-0.339828	0.00152123	2	-0.00131725	5.16956e-07
2	1	0	1	0	32.9089	-0.336464	-0.336828	0.00180796	2	-0.0013172	6.08972e-07
2	1	0	1	0	32.9389	-0.333465	-0.333823	0.00211451	2	-0.00131714	7.05871e-07
2	1	0	1	0	32.9689	-0.330466	-0.330823	0.00241251	2	-0.00131707	7.98116e-07
2	1	0	1	0	32.9989	-0.327467	-0.32782	0.00269877	2	-0.001317	8.8471e-07
2	1	0	1	0	33.0289	-0.324468	-0.324842	0.00297797	2	-0.00131691	9.6737e-07
2	1	0	1	0	33.0589	-0.32147	-0.321825	0.00329532	2	-0.00131682	1.06052e-06
2	1	0	1	0	33.0889	-0.318471	-0.318823	0.00358806	2	-0.00131671	1.14396e-06
2	1	0	1	0	33.1189	-0.315472	-0.315852	0.00388824	2	-0.0013166	1.22811e-06
2	1	0	1	0	33.1489	-0.312473	-0.31284	0.00417083	2	-0.00131648	1.3048e-06
2	1	0	1	0	33.1789	-0.309474	-0.309845	0.00447234	2	-0.00131635	1.38573e-06
2	1	0	0	0	33.2087	-0.306475	-0.306841	0.00479458	2	-0.00131621	1.47117e-06
2	1	0	0	0	33.2387	-0.303476	-0.303823	0.00508994	2	-0.00131606	1.54644e-06
2	1	0	0	0	33.2687	-0.300477	-0.300832	0.00540017	2	-0.00131591	1.62454e-06
2	1	0	0	0	33.2987	-0.297478	-0.297813	0.00571763	2	-0.00131574	1.70279e-06
2	1	0	0	0	33.3287	-0.294479	-0.294829	0.00601374	2	-0.00131556	1.77303e-06
2	1	0	0	0	33.3587	-0.29148	-0.291811	0.00634336	2	-0.00131538	1.85106e-06
2	1	0	0	0	33.3887	-0.288481	-0.288806	0.00665645	2	-0.00131518	1.92242e-06
2	1	0	0	0	33.4187	-0.285482	-0.285839	0.00697599	2	-0.00131497	1.99401e-06
2	1	0	0	0	33.4487	-0.282483	-0.28282	0.00732563	2	-0.00131476	2.07184e-06
2	1	0	0	0	33.4787	-0.279485	-0.279815	0.00765893	2	-0.00131453	2.14308e-06
2	1	0	0	0	33.5087	-0.276486	-0.276815	0.00799879	2	-0.0013143	2.21419e-06
2	1	0	0	0	33.5387	-0.273487	-0.27384	0.00832616	2	-0.00131405	2.28004e-06
2	1	0	0	0	33.5687	-0.270488	-0.270811	0.008681	2	-0.0013138	2.35091e-06
2	1	0	0	0	33.5987	-0.267489	-0.267831	0.00903073	2	-0.00131353	2.41871e-06
2	1	0	0	0	33.6287	-0.26449	-0.264827	0.00939275	2	-0.00131326	2.48745e-06
2	1	0	0	0	33.6587	-0.261491	-0.261816	0.00974346	2	-0.00131297	2.551e-06
2	1	0	0	0	33.6887	-0.258492	-0.258811	0.0101035	2	-0.00131267	2.6149e-06
2	1	0	1	0	33.7497	-0.252394	-0.252795	0.0105796	2	-0.00131204	2.67447e-06
2	1	0	0	0	33.7795	-0.249395	-0.249777	0.0109304	2	-0.00131171	2.73016e-06
2	1	0	0	0	33.8095	-0.246396	-0.246781	0.0113636	2	-0.00131136	2.80431e-06
2	1	0	0	0	33.8395	-0.243397	-0.243776	0.0116858	2	-0.00131101	2.84871e-06
2	1	0	0	0	33.8695	-0.240398	-0.24078	0.0121092	2	-0.00131064	2.91566e-06
2	1	0	0	0	33.8995	-0.2374	-0.23778	0.0125089	2	-0.00131027	2.97437e-06
2	1	0	0	0	33.9295	-0.234401	-0.234788	0.0128742	2	-0.00130988	3.02271e-06
2	1	0	0	0	33.9595	-0.231402	-0.23179	0.0132591	2	-0.00130948	3.07333e-06
2	1	0	0	0	33.9895	-0.228403	-0.228798	0.0136272	2	-0.00130907	3.11786e-06
2	1	0	0	0	34.0195	-0.225404	-0.225809	0.0140617	2	-0.00130864	3.17525e-06
2	1	0	0	0	34.0495	-0.222405	-0.222802	0.0143797	2	-0.00130821	3.20383e-06
2	1	0	0	0	34.0795	-0.219406	-0.219795	0.0148241	2	-0.00130776	3.25826e-06
2	1	0	0	0	34.1095	-0.216407	-0.216806	0.015205	2	-0.0013073	3.29655e-06
2	1	0	0	0	34.1395	-0.213408	-0.213799	0.0156194	2	-0.00130683	3.33941e-06
2	1	0	0	0	34.1695	-0.210409	-0.2108	0.0159676	2	-0.00130635	3.36597e-06
2	1	0	0	0	34.1995	-0.20741	-0.207791	0.0164198	2	-0.00130585	3.41189e-06
2	1	0	0	0	34.2295	-0.204411	-0.204796	0.0167766	2	-0.00130535	3.43578e-06
2	1	0	0	0	34.2595	-0.201412	-0.201797	0.0171881	2	-0.00130483	3.46851e-06
2	1	0	0	0	34.2895	-0.198413	-0.198786	0.0175809	2	-0.0013043	3.49484e-06
2	1	0	1	0	34.3193	-0.195415	-0.195804	0.0179884	2	-0.00130376	3.52221e-06
2	1	0	1	0	34.3493	-0.192416	-0.192799	0.0183301	2	-0.00130321	3.53403e-06
2	1	0	1	0	34.3793	-0.189417	-0.1898	0.018688	2	-0.00130264	3.54697e-06
2	1	0	1	0	34.4093	-0.186418	-0.186795	0.0190515	2	-0.00130207	3.55872e-06
2	1	0	1	0	34.4393	-0.183419	-0.183788	0.0194439	2	-0.00130148	3.57357e-06
2	1	0	1	0	34.4693	-0.18042	-0.180797	0.0198078	2	-0.00130089	3.58118e-06
2	1	0	1	0	34.4993	-0.177421	-0.177811	0.0200552	2	-0.00130028	3.56602e-06
2	1	0	1	0	34.5293	-0.174422	-0.174799	0.020401	2	-0.00129966	3.56607e-06
2	1	0	1	0	34.5593	-0.171423	-0.171802	0.0207078	2	-0.00129904	3.55764e-06
2	1	0	1	0	34.5893	-0.168424	-0.168819	0.0209006	2	-0.00129841	3.52841e-06
2	1	0	1	0	34.6193	-0.165425	-0.165807	0.0212233	2	-0.00129777	3.51898e-06
2	1	0	1	0	34.6493	-0.162426	-0.162807	0.0214095	2	-0.00129712	3.48562e-06
2	1	0	1	0	34.6793	-0.159427	-0.159788	0.0215961	2	-0.00129646	3.45079e-06
2	1	0	1	0	34.7093	-0.156428	-0.1568	0.0217615	2	-0.00129581	3.4122e-06
2	1	0	1	0	34.7393	-0.15343	-0.15381	0.0218966	2	-0.00129514	3.36792e-06
2	1	0	1	0	34.7693	-0.150431	-0.150805	0.0220082	2	-0.00129447	3.31895e-06
2	1	0	1	0	34.7993	-0.147432	-0.147791	0.022071	2	-0.0012938	3.2619e-06
2	1	0	1	0	34.8293	-0.144433	-0.14479	0.022147	2	-0.00129313	3.20667e-06
2	1	0	1	0	34.8593	-0.141434	-0.141797	0.0221326	2	-0.00129246	3.13834e-06
2	1	0	0	0	34.8891	-0.138435	-0.138794	0.0221301	2	-0.00129179	3.07153e-06
2	1	0	0	0	34.9191	-0.135436	-0.135786	0.0220957	2	-0.00129112	3.00029e-06
2	1	0	0	0	34.9491	-0.132437	-0.132795	0.0219788	2	-0.00129045	2.91868e-06
2	1	0	0	0	34.9791	-0.129438	-0.1298	0.0218726	2	-0.00128978	2.83905e-06
2	1	0	0	0	35.0091	-0.126439	-0.126801	0.0217031	2	-0.00128912	2.75198e-06
2	1	0	0	0	35.0391	-0.12344	-0.123817	0.0215176	2	-0.00128846	2.66425e-06
2	1	0	0	0	35.0691	-0.120441	-0.12081	0.0213004	2	-0.00128781	2.57329e-06
2	1	0	0	0	35.0991	-0.117442	-0.11782	0.021071	2	-0.00128717	2.48258e-06
2	1	0	0	0	35.1291	-0.114444	-0.114815	0.0208151	2	-0.00128653	2.38989e-06
2	1	0	0	0	35.1591	-0.111445	-0.111816	0.0205442	2	-0.0012859	2.29717e-06
2	1	0	0	0	35.1891	-0.108446	-0.108828	0.0202668	2	-0.00128528	2.20559e-06
2	1	0	0	0	35.2191	-0.105447	-0.105825	0.0199605	2	-0.00128467	2.11231e-06
2	1	0	0	0	35.2491	-0.102448	-0.102813	0.0196672	2	-0.00128407	2.02205e-06
2	1	0	0	0	35.2791	-0.0994489	-0.0998129	0.0193281	2	-0.00128348	1.92919e-06
2	1	0	0	0	35.3091	-0.0964499	-0.0968173	0.019002	2	-0.00128289	1.83972e-06
2	1	0	0	0	35.3391	-0.093451	-0.0938161	0.0186693	2	-0.00128232	1.75148e-06
2	1	0	0	0	35.3691	-0.0904521	-0.0908009	0.0183717	2	-0.00128176	1.66817e-06
2	1	0	0	0	35.3991	-0.0874531	-0.0877926	0.0180566	2	-0.0012812	1.58523e-06
2	1	0	0	0	35.429	-0.0844633	-0.0848339	0.0177385	2	-0.00128066	1.50482e-06
2	1	0	1	0	35.4589	-0.0814553	-0.0818183	0.0174195	2	-0.00128012	1.42524e-06
2	1	0	1	0	35.4889	-0.0784564	-0.0788088	0.0171242	2	-0.0012796	1.34954e-06
2	1	0	1	0	35.5189	-0.0754574	-0.0758209	0.01681	2	-0.00127908	1.27455e-06
2	1	0	1	0	35.5489	-0.0724585	-0.0728313	0.0165061	2	-0.00127857	1.20216e-06
2	1	0	1	0	35.5789	-0.0694596	-0.0698318	0.0162533	2	-0.00127807	1.135e-06
2	1	0	1	0	35.6089	-0.0664607	-0.0668259	0.0159764	2	-0.00127758	1.06764e-06
2	1	0	1	0	35.6389	-0.0634617	-0.0638392	0.0157172	2	-0.0012771	1.00337e-06
2	1	0	1	0	35.6689	-0.0604628	-0.0608316	0.015469	2	-0.00127662	9.41007e-07
2	1	0	1	0	35.6989	-0.0574639	-0.0578319	0.015249	2	-0.00127615	8.81879e-07
2	1	0	1	0	35.7289	-0.0544649	-0.0548366	0.0150464	2	-0.00127569	8.25091e-07
2	1	0	1	0	35.7589	-0.051466	-0.0518429	0.0148386	2	-0.00127523	7.69275e-07
2	1	0	1	0	35.7889	-0.0484671	-0.0488504	0.0146273	2	-0.00127478	7.14552e-07
2	1	0	1	0	35.8189	-0.0454681	-0.0458273	0.0144767	2	-0.00127434	6.63429e-07
2	1	0	1	0	35.8489	-0.0424692	-0.0428356	0.0142591	2	-0.0012739	6.10796e-07
2	1	0	1	0	35.8789	-0.0394703	-0.0398265	0.0141006	2	-0.00127346	5.61578e-07
2	1	0	1	0	35.9089	-0.0364714	-0.0368367	0.0139687	2	-0.00127304	5.1456e-07
2	1	0	1	0	35.9389	-0.0334724	-0.0338397	0.0138069	2	-0.00127261	4.67221e-07
2	1	0	1	0	35.9689	-0.0304735	-0.0308412	0.0136636	2	-0.00127219	4.21403e-07
2	1	0	0	0	35.9947	-0.0278744	-0.028234	0.0135249	2	-0.00127183	3.81861e-07