File: TAP_Report/Data/Res_growth/mg4_1_2.mpt
EC-Lab ASCII FILE
Nb header lines : 54

Cyclic Voltammetry

Run on channel : 1 (SN 0696)
User :
Electrode connection : standard
Ewe ctrl range : min = -2.50 V, max = 2.50 V
Ewe,I filtering : 50 kHz
Channel : Grounded
Acquisition started on : 01/18/2017 14:46:12
Saved on :
	File : mg4_1.mpr
	Directory : H:\EC-Lab\Data\Resazurin Bulk 18-1-17\
	Host : 144.32.136.43
Device : SP-300 (SN 0182)
Address : USB
EC-Lab for windows v10.44 (software)
Internet server v10.44 (firmware)
Command interpretor v10.44 (firmware)
Electrode material :
Initial state :
Electrolyte :
Comments :
Cable : standard
Reference electrode : SCE Saturated Calomel Electrode (0.241 V)
Electrode surface area : 0.001 cm²
Characteristic mass : 0.001 g
Equivalent Weight : 0.000 g/eq.
Density : 0.000 g/cm3
Ei (V)              0.000
vs.                 Eoc
dE/dt               100.000
dE/dt unit          mV/s
E1 (V)              0.000
vs.                 Ref
Step percent        50
N                   10
E range min (V)     -2.500
E range max (V)     2.500
I Range             Auto
I Range min         Unset
I Range max         Unset
I Range init        Unset
Bandwidth           8
E2 (V)              -0.900
vs.                 Ref
nc cycles           2
Reverse Scan        1
Ef (V)              0.000
vs.                 Eoc

mode	ox/red	error	control changes	counter inc.	time/s	control/V	Ewe/V	<I>/mA	cycle number	(Q-Qo)/C	P/W
2	1	0	1	1	17.9956	-0.0252254	-0.0259908	0.0119931	2	-0.000714731	3.11709e-07
2	1	0	0	1	18.0211	-0.0226763	-0.0234429	0.0119184	2	-0.000714419	2.79402e-07
2	1	0	0	1	18.0511	-0.0196774	-0.0204533	0.0118491	2	-0.000714054	2.42352e-07
2	1	0	0	1	18.0811	-0.0166784	-0.0174554	0.0117341	2	-0.000713692	2.04823e-07
2	1	0	0	1	18.1111	-0.0136795	-0.0144474	0.011666	2	-0.000713333	1.68544e-07
2	1	0	0	1	18.1411	-0.0106806	-0.0114657	0.0116247	2	-0.000712975	1.33285e-07
2	1	0	0	1	18.1711	-0.00768165	-0.00844787	0.0115345	2	-0.00071262	9.74423e-08
2	1	0	0	1	18.2011	-0.00468272	-0.00546274	0.0114407	2	-0.000712267	6.24975e-08
2	1	0	0	1	18.2311	-0.00168379	-0.00246975	0.0113876	2	-0.000711915	2.81245e-08
2	0	0	0	1	18.2482	-3.43797e-05	-0.000877662	0.0111119	2	-0.000711716	9.75251e-09
2	0	0	1	1	18.2737	-0.00258347	-0.00340939	0.00822256	2	-0.000711496	2.80339e-08
2	0	0	1	1	18.3037	-0.0055824	-0.00640854	0.00720633	2	-0.000711274	4.6182e-08
2	0	0	1	1	18.3337	-0.00858133	-0.00939877	0.00652148	2	-0.000711078	6.12939e-08
2	0	0	1	1	18.3637	-0.0115803	-0.0124064	0.00587364	2	-0.0007109	7.28707e-08
2	0	0	1	1	18.3937	-0.0145792	-0.0154078	0.00542344	2	-0.000710739	8.35636e-08
2	0	0	1	1	18.4237	-0.0175781	-0.018393	0.00496667	2	-0.000710592	9.13518e-08
2	0	0	1	1	18.4537	-0.020577	-0.0213944	0.00459458	2	-0.000710457	9.82983e-08
2	0	0	1	1	18.4837	-0.023576	-0.0244215	0.00421954	2	-0.000710333	1.03048e-07
2	0	0	0	1	18.5435	-0.0295738	-0.0303999	0.00331585	2	-0.0007101	1.00801e-07
2	0	0	0	1	18.5735	-0.0325727	-0.0333909	0.00303587	2	-0.000710005	1.0137e-07
2	0	0	0	1	18.6035	-0.0355717	-0.0364062	0.00278282	2	-0.000709918	1.01312e-07
2	0	0	0	1	18.6335	-0.0385706	-0.039403	0.00252938	2	-0.000709839	9.96651e-08
2	0	0	0	1	18.6635	-0.0415695	-0.0424146	0.00230681	2	-0.000709767	9.78423e-08
2	0	0	0	1	18.6935	-0.0445685	-0.0454091	0.00208925	2	-0.000709701	9.48711e-08
2	0	0	0	1	18.7235	-0.0475674	-0.048404	0.00188129	2	-0.000709642	9.10621e-08
2	0	0	0	1	18.7535	-0.0505663	-0.0513893	0.00169249	2	-0.000709588	8.6976e-08
2	0	0	0	1	18.7835	-0.0535652	-0.0544069	0.00151351	2	-0.00070954	8.23455e-08
2	0	0	0	1	18.8135	-0.0565642	-0.0574053	0.00134024	2	-0.000709498	7.69371e-08
2	0	0	0	1	18.8435	-0.0595631	-0.0603837	0.00117913	2	-0.000709461	7.12002e-08
2	0	0	0	1	18.8735	-0.062562	-0.0633905	0.00100941	2	-0.000709428	6.39868e-08
2	0	0	0	1	18.9035	-0.065561	-0.0663928	0.000853777	2	-0.000709401	5.66846e-08
2	0	0	0	1	18.9335	-0.0685599	-0.0694034	0.000703726	2	-0.000709377	4.88409e-08
2	0	0	0	1	18.9635	-0.0715588	-0.0723929	0.000565096	2	-0.000709358	4.09089e-08
2	0	0	0	1	18.9935	-0.0745578	-0.0753974	0.000427291	2	-0.000709344	3.22166e-08
2	0	0	0	1	19.0235	-0.0775567	-0.0783925	0.000297043	2	-0.000709333	2.32859e-08
2	0	0	0	1	19.0535	-0.0805556	-0.0813912	0.000170956	2	-0.000709326	1.39143e-08
2	0	0	1	1	19.0833	-0.0835545	-0.0843761	3.93432e-05	2	-0.000709324	3.31962e-09
2	0	0	1	1	19.1133	-0.0865535	-0.0873788	-8.98818e-05	2	-0.000709324	7.85377e-09
2	0	0	1	1	19.1433	-0.0895524	-0.090396	-0.00020433	2	-0.000709329	1.84706e-08
2	0	0	1	1	19.1733	-0.0925513	-0.0933826	-0.000315143	2	-0.000709337	2.94289e-08
2	0	0	1	1	19.2033	-0.0955502	-0.0963885	-0.000423629	2	-0.000709349	4.0833e-08
2	0	0	1	1	19.2333	-0.0985492	-0.0994014	-0.000542004	2	-0.000709363	5.3876e-08
2	0	0	1	1	19.2633	-0.101548	-0.102391	-0.000659127	2	-0.000709382	6.74889e-08
2	0	0	1	1	19.2933	-0.104547	-0.105394	-0.00077716	2	-0.000709404	8.1908e-08
2	0	0	1	1	19.3233	-0.107546	-0.108378	-0.000872327	2	-0.000709428	9.45412e-08
2	0	0	1	1	19.3533	-0.110545	-0.111375	-0.000984532	2	-0.000709457	1.09652e-07
2	0	0	1	1	19.3833	-0.113544	-0.114393	-0.00110151	2	-0.000709488	1.26005e-07
2	0	0	1	1	19.4133	-0.116543	-0.117391	-0.00120635	2	-0.000709523	1.41615e-07
2	0	0	1	1	19.4433	-0.119542	-0.120386	-0.00132284	2	-0.000709561	1.59252e-07
2	0	0	1	1	19.4733	-0.122541	-0.123377	-0.00141352	2	-0.000709602	1.74396e-07
2	0	0	1	1	19.5033	-0.12554	-0.126391	-0.0015175	2	-0.000709646	1.91799e-07
2	0	0	1	1	19.5333	-0.128538	-0.129382	-0.00161925	2	-0.000709694	2.09503e-07
2	0	0	1	1	19.5633	-0.131537	-0.13239	-0.00173972	2	-0.000709744	2.30321e-07
2	0	0	1	1	19.5933	-0.134536	-0.135374	-0.00185043	2	-0.000709798	2.50501e-07
2	0	0	1	1	19.6232	-0.137538	-0.138382	-0.00199007	2	-0.000709856	2.7539e-07
2	0	0	0	1	19.6531	-0.140534	-0.141389	-0.00207621	2	-0.000709917	2.93554e-07
2	0	0	0	1	19.6831	-0.143533	-0.144396	-0.00220559	2	-0.000709982	3.18477e-07
2	0	0	0	1	19.7131	-0.146532	-0.147374	-0.00231126	2	-0.00071005	3.40619e-07
2	0	0	0	1	19.7431	-0.149531	-0.15037	-0.00243732	2	-0.000710121	3.66498e-07
2	0	0	0	1	19.7731	-0.15253	-0.153383	-0.00255585	2	-0.000710196	3.92023e-07
2	0	0	0	1	19.8031	-0.155529	-0.15638	-0.00269408	2	-0.000710275	4.21301e-07
2	0	0	0	1	19.8331	-0.158528	-0.15937	-0.00280731	2	-0.000710358	4.47401e-07
2	0	0	0	1	19.8631	-0.161527	-0.162361	-0.00296952	2	-0.000710445	4.82134e-07
2	0	0	0	1	19.8931	-0.164526	-0.16537	-0.00311167	2	-0.000710537	5.14577e-07
2	0	0	0	1	19.9231	-0.167525	-0.168361	-0.00325616	2	-0.000710632	5.4821e-07
2	0	0	0	1	19.9531	-0.170523	-0.171364	-0.00339176	2	-0.000710732	5.81227e-07
2	0	0	0	1	19.9831	-0.173522	-0.174355	-0.00355926	2	-0.000710837	6.20576e-07
2	0	0	0	1	20.0131	-0.176521	-0.177369	-0.00371549	2	-0.000710946	6.59013e-07
2	0	0	0	1	20.0431	-0.17952	-0.180356	-0.00388453	2	-0.000711061	7.00598e-07
2	0	0	0	1	20.0731	-0.182519	-0.183365	-0.00406819	2	-0.00071118	7.45964e-07
2	0	0	0	1	20.1031	-0.185518	-0.18636	-0.00426415	2	-0.000711305	7.94665e-07
2	0	0	0	1	20.1331	-0.188517	-0.189369	-0.00444524	2	-0.000711436	8.41791e-07
2	0	0	0	1	20.1631	-0.191516	-0.192393	-0.00465574	2	-0.000711573	8.9573e-07
2	0	0	1	1	20.1929	-0.194515	-0.195388	-0.00487882	2	-0.000711715	9.53263e-07
2	0	0	1	1	20.2229	-0.197514	-0.19837	-0.00508705	2	-0.000711865	1.00912e-06
2	0	0	1	1	20.2529	-0.200513	-0.2014	-0.00532666	2	-0.000712021	1.07279e-06
2	0	0	1	1	20.2829	-0.203512	-0.204395	-0.00557622	2	-0.000712185	1.13975e-06
2	0	0	1	1	20.3129	-0.206511	-0.207373	-0.0058153	2	-0.000712355	1.20593e-06
2	0	0	1	1	20.3429	-0.20951	-0.210371	-0.00607326	2	-0.000712534	1.27764e-06
2	0	0	1	1	20.3729	-0.212508	-0.213386	-0.00634875	2	-0.000712721	1.35473e-06
2	0	0	1	1	20.4029	-0.215507	-0.216384	-0.00664825	2	-0.000712916	1.43857e-06
2	0	0	1	1	20.4329	-0.218506	-0.219386	-0.00693317	2	-0.00071312	1.52104e-06
2	0	0	1	1	20.4629	-0.221505	-0.222401	-0.00723684	2	-0.000713333	1.60948e-06
2	0	0	1	1	20.4929	-0.224504	-0.225397	-0.00757016	2	-0.000713556	1.70629e-06
2	0	0	1	1	20.5229	-0.227503	-0.228394	-0.00791399	2	-0.000713788	1.8075e-06
2	0	0	1	1	20.5529	-0.230502	-0.231399	-0.00826752	2	-0.000714031	1.91309e-06
2	0	0	1	1	20.5829	-0.233501	-0.234398	-0.00863008	2	-0.000714285	2.02287e-06
2	0	0	1	1	20.6129	-0.2365	-0.237396	-0.00900333	2	-0.00071455	2.13735e-06
2	0	0	1	1	20.6429	-0.239499	-0.240381	-0.00941487	2	-0.000714827	2.26316e-06
2	0	0	1	1	20.6729	-0.242498	-0.243404	-0.0098139	2	-0.000715115	2.38875e-06
2	0	0	1	1	20.7029	-0.245497	-0.24639	-0.0102022	2	-0.000715415	2.51372e-06
2	0	0	1	1	20.7637	-0.251594	-0.252463	-0.0107737	2	-0.000716056	2.71996e-06
2	0	0	1	1	20.7937	-0.254593	-0.255453	-0.0111814	2	-0.000716394	2.85634e-06
2	0	0	1	1	20.8237	-0.257592	-0.258462	-0.011643	2	-0.000716745	3.00928e-06
2	0	0	1	1	20.8537	-0.260591	-0.261465	-0.0120458	2	-0.00071711	3.14955e-06
2	0	0	1	1	20.8837	-0.26359	-0.264473	-0.0125523	2	-0.000717487	3.31975e-06
2	0	0	1	1	20.9137	-0.266589	-0.267476	-0.0129655	2	-0.000717879	3.46797e-06
2	0	0	1	1	20.9437	-0.269588	-0.270473	-0.0134544	2	-0.000718284	3.63905e-06
2	0	0	1	1	20.9737	-0.272587	-0.273453	-0.0138915	2	-0.000718702	3.79868e-06
2	0	0	1	1	21.0037	-0.275586	-0.276463	-0.0143411	2	-0.000719134	3.96478e-06
2	0	0	1	1	21.0337	-0.278585	-0.279458	-0.0147737	2	-0.00071958	4.12862e-06
2	0	0	1	1	21.0637	-0.281584	-0.282447	-0.0152363	2	-0.000720039	4.30345e-06
2	0	0	1	1	21.0937	-0.284583	-0.285447	-0.0156817	2	-0.000720512	4.47629e-06
2	0	0	1	1	21.1237	-0.287582	-0.288444	-0.016156	2	-0.000720998	4.6601e-06
2	0	0	1	1	21.1537	-0.290581	-0.291439	-0.0166374	2	-0.000721498	4.84879e-06
2	0	0	1	1	21.1837	-0.293579	-0.294437	-0.0170882	2	-0.000722012	5.0314e-06
2	0	0	1	1	21.2137	-0.296578	-0.297424	-0.0175266	2	-0.000722539	5.21282e-06
2	0	0	1	1	21.2437	-0.299577	-0.300433	-0.017955	2	-0.00072308	5.39428e-06
2	0	0	1	1	21.2737	-0.302576	-0.303429	-0.0184315	2	-0.000723634	5.59266e-06
2	0	0	1	1	21.3036	-0.305582	-0.306464	-0.0189181	2	-0.000724201	5.79773e-06
2	0	0	0	1	21.3335	-0.308574	-0.30945	-0.0193614	2	-0.00072478	5.99138e-06
2	0	0	0	1	21.3635	-0.311573	-0.312446	-0.0197561	2	-0.000725375	6.1727e-06
2	0	0	0	1	21.3935	-0.314572	-0.315422	-0.0202063	2	-0.000725983	6.37352e-06
2	0	0	0	1	21.4235	-0.317571	-0.318432	-0.020647	2	-0.000726605	6.57465e-06
2	0	0	0	1	21.4535	-0.32057	-0.321439	-0.0210969	2	-0.00072724	6.78137e-06
2	0	0	0	1	21.4835	-0.323569	-0.324447	-0.0215296	2	-0.000727888	6.9852e-06
2	0	0	0	1	21.5135	-0.326568	-0.327442	-0.0219475	2	-0.00072855	7.18651e-06
2	0	0	0	1	21.5435	-0.329567	-0.330448	-0.022437	2	-0.000729225	7.41425e-06
2	0	0	0	1	21.5735	-0.332566	-0.333435	-0.0228753	2	-0.000729913	7.62743e-06
2	0	0	0	1	21.6035	-0.335564	-0.336429	-0.0233023	2	-0.000730615	7.83957e-06
2	0	0	0	1	21.6335	-0.338563	-0.339424	-0.0237555	2	-0.000731329	8.06317e-06
2	0	0	0	1	21.6635	-0.341562	-0.34244	-0.0242129	2	-0.000732058	8.29147e-06
2	0	0	0	1	21.6935	-0.344561	-0.345434	-0.0246699	2	-0.0007328	8.52185e-06
2	0	0	0	1	21.7235	-0.34756	-0.348446	-0.0251684	2	-0.000733556	8.76981e-06
2	0	0	0	1	21.7535	-0.350559	-0.351431	-0.025603	2	-0.000734325	8.99768e-06
2	0	0	0	1	21.7835	-0.353558	-0.354419	-0.0260761	2	-0.000735108	9.24186e-06
2	0	0	0	1	21.8135	-0.356557	-0.357419	-0.0265152	2	-0.000735905	9.47703e-06
2	0	0	0	1	21.8435	-0.359556	-0.360426	-0.02697	2	-0.000736716	9.72069e-06
2	0	0	1	1	21.8733	-0.362555	-0.363414	-0.0274366	2	-0.000737535	9.97084e-06
2	0	0	1	1	21.9033	-0.365554	-0.366421	-0.0279193	2	-0.000738374	1.02302e-05
2	0	0	1	1	21.9333	-0.368553	-0.369416	-0.0283722	2	-0.000739227	1.04811e-05
2	0	0	1	1	21.9633	-0.371552	-0.372412	-0.0288325	2	-0.000740095	1.07376e-05
2	0	0	1	1	21.9933	-0.374551	-0.375438	-0.0293171	2	-0.000740976	1.10068e-05
2	0	0	1	1	22.0233	-0.377549	-0.378411	-0.0297993	2	-0.000741872	1.12764e-05
2	0	0	1	1	22.0533	-0.380548	-0.381418	-0.0302561	2	-0.000742783	1.15402e-05
2	0	0	1	1	22.0833	-0.383547	-0.3844	-0.030796	2	-0.000743707	1.1838e-05
2	0	0	1	1	22.1133	-0.386546	-0.387408	-0.0312589	2	-0.000744647	1.21099e-05
2	0	0	1	1	22.1433	-0.389545	-0.390399	-0.0317728	2	-0.0007456	1.24041e-05
2	0	0	1	1	22.1733	-0.392544	-0.393406	-0.0322407	2	-0.000746569	1.26837e-05
2	0	0	1	1	22.2033	-0.395543	-0.396408	-0.0327117	2	-0.000747552	1.29672e-05
2	0	0	1	1	22.2333	-0.398542	-0.399414	-0.0331985	2	-0.000748549	1.326e-05
2	0	0	1	1	22.2633	-0.401541	-0.402414	-0.0336513	2	-0.000749561	1.35418e-05
2	0	0	1	1	22.2933	-0.40454	-0.405413	-0.0341476	2	-0.000750587	1.38439e-05
2	0	0	1	1	22.3233	-0.407539	-0.408397	-0.0346797	2	-0.000751627	1.41631e-05
2	0	0	1	1	22.3533	-0.410538	-0.411419	-0.0351233	2	-0.000752682	1.44504e-05
2	0	0	1	1	22.3833	-0.413537	-0.414429	-0.0355603	2	-0.000753751	1.47372e-05
2	0	0	1	1	22.4133	-0.416536	-0.417415	-0.0360089	2	-0.000754834	1.50307e-05
2	0	0	0	1	22.4431	-0.419534	-0.420406	-0.0365105	2	-0.000755923	1.53492e-05
2	0	0	0	1	22.4731	-0.422533	-0.423406	-0.0369144	2	-0.000757033	1.56298e-05
2	0	0	0	1	22.5031	-0.425532	-0.42642	-0.0373451	2	-0.000758157	1.59247e-05
2	0	0	0	1	22.5331	-0.428531	-0.429423	-0.0378179	2	-0.000759294	1.62399e-05
2	0	0	0	1	22.5631	-0.43153	-0.432404	-0.0382464	2	-0.000760443	1.65379e-05
2	0	0	0	1	22.5931	-0.434529	-0.43541	-0.038668	2	-0.000761605	1.68364e-05
2	0	0	0	1	22.6231	-0.437528	-0.438407	-0.0390779	2	-0.00076278	1.7132e-05
2	0	0	0	1	22.6531	-0.440527	-0.441407	-0.0394798	2	-0.000763967	1.74267e-05
2	0	0	0	1	22.6831	-0.443526	-0.444412	-0.0398851	2	-0.000765166	1.77255e-05
2	0	0	0	1	22.7131	-0.446525	-0.447409	-0.0402883	2	-0.000766377	1.80253e-05
2	0	0	0	1	22.7431	-0.449524	-0.450396	-0.0406544	2	-0.000767599	1.83106e-05
2	0	0	0	1	22.7731	-0.452523	-0.453405	-0.0410053	2	-0.000768833	1.8592e-05
2	0	0	0	1	22.8031	-0.455522	-0.456413	-0.0414215	2	-0.000770077	1.89053e-05
2	0	0	0	1	22.8331	-0.45852	-0.459395	-0.0417414	2	-0.000771332	1.91758e-05
2	0	0	0	1	22.8631	-0.461519	-0.462392	-0.0420726	2	-0.000772597	1.94541e-05
2	0	0	0	1	22.8931	-0.464518	-0.465408	-0.0424077	2	-0.000773873	1.97369e-05
2	0	0	0	1	22.9231	-0.467517	-0.468404	-0.0427196	2	-0.000775158	2.001e-05
2	0	0	0	1	22.9531	-0.470516	-0.471391	-0.0430519	2	-0.000776454	2.02943e-05
2	0	0	0	1	22.983	-0.473522	-0.474406	-0.0433879	2	-0.000777754	2.05835e-05
2	0	0	1	1	23.0129	-0.476514	-0.477394	-0.0437145	2	-0.000779064	2.0869e-05
2	0	0	1	1	23.0429	-0.479513	-0.480393	-0.04398	2	-0.000780387	2.11277e-05
2	0	0	1	1	23.0729	-0.482512	-0.483406	-0.0442565	2	-0.000781718	2.13939e-05
2	0	0	1	1	23.1029	-0.485511	-0.486374	-0.0445121	2	-0.000783058	2.16495e-05
2	0	0	1	1	23.1329	-0.48851	-0.489385	-0.0448159	2	-0.000784406	2.19322e-05
2	0	0	1	1	23.1629	-0.491509	-0.492372	-0.0450546	2	-0.000785763	2.21836e-05
2	0	0	1	1	23.1929	-0.494508	-0.495373	-0.0453015	2	-0.000787127	2.24411e-05
2	0	0	1	1	23.2229	-0.497507	-0.498383	-0.0456153	2	-0.000788499	2.27339e-05
2	0	0	1	1	23.2529	-0.500506	-0.501371	-0.045845	2	-0.000789878	2.29853e-05
2	0	0	1	1	23.2829	-0.503505	-0.504394	-0.0460907	2	-0.000791265	2.32479e-05
2	0	0	1	1	23.3129	-0.506503	-0.507394	-0.0463686	2	-0.00079266	2.35271e-05
2	0	0	1	1	23.3429	-0.509502	-0.510393	-0.0465663	2	-0.000794061	2.37671e-05
2	0	0	1	1	23.3729	-0.512501	-0.51339	-0.0467867	2	-0.00079547	2.40198e-05
2	0	0	1	1	23.4029	-0.5155	-0.516394	-0.0470033	2	-0.000796885	2.42722e-05
2	0	0	1	1	23.4329	-0.518499	-0.519375	-0.0472298	2	-0.000798306	2.453e-05
2	0	0	1	1	23.4629	-0.521498	-0.522387	-0.0474252	2	-0.000799735	2.47743e-05
2	0	0	1	1	23.4929	-0.524497	-0.525379	-0.0476579	2	-0.00080117	2.50385e-05
2	0	0	1	1	23.5229	-0.527496	-0.528377	-0.0479263	2	-0.000802611	2.53231e-05
2	0	0	0	1	23.5527	-0.530495	-0.531375	-0.0481149	2	-0.000804049	2.5567e-05
2	0	0	0	1	23.5827	-0.533494	-0.534386	-0.048269	2	-0.000805503	2.57943e-05
2	0	0	0	1	23.6127	-0.536493	-0.537363	-0.0484742	2	-0.000806963	2.60482e-05
2	0	0	0	1	23.6427	-0.539492	-0.540361	-0.0486827	2	-0.000808429	2.63062e-05
2	0	0	0	1	23.6727	-0.542491	-0.543374	-0.0488614	2	-0.0008099	2.655e-05
2	0	0	0	1	23.7027	-0.545489	-0.546367	-0.0490925	2	-0.000811378	2.68226e-05
2	0	0	0	1	23.7327	-0.548488	-0.549372	-0.0492609	2	-0.000812861	2.70625e-05
2	0	0	0	1	23.7627	-0.551487	-0.552366	-0.0494594	2	-0.00081435	2.73197e-05
2	0	0	0	1	23.7927	-0.554486	-0.555373	-0.0496361	2	-0.000815845	2.75665e-05
2	0	0	0	1	23.8227	-0.557485	-0.55835	-0.0498094	2	-0.000817345	2.78111e-05
2	0	0	0	1	23.8527	-0.560484	-0.561372	-0.049999	2	-0.000818851	2.8068e-05
2	0	0	0	1	23.8827	-0.563483	-0.564356	-0.0501978	2	-0.000820362	2.83294e-05
2	0	0	0	1	23.9127	-0.566482	-0.567349	-0.0504006	2	-0.000821878	2.85947e-05
2	0	0	0	1	23.9427	-0.569481	-0.570345	-0.05055	2	-0.000823401	2.8831e-05
2	0	0	0	1	23.9727	-0.57248	-0.573357	-0.0507184	2	-0.000824928	2.90798e-05
2	0	0	0	1	24.0027	-0.575479	-0.576351	-0.0509088	2	-0.000826461	2.93413e-05
2	0	0	0	1	24.0327	-0.578478	-0.579339	-0.0510843	2	-0.000827999	2.95952e-05
2	0	0	0	1	24.0627	-0.581477	-0.582357	-0.0512343	2	-0.000829543	2.98366e-05
2	0	0	0	1	24.0927	-0.584476	-0.585359	-0.0514831	2	-0.000831092	3.01361e-05
2	0	0	1	1	24.1225	-0.587475	-0.588348	-0.0516601	2	-0.000832636	3.03941e-05
2	0	0	1	1	24.1525	-0.590473	-0.591346	-0.0518131	2	-0.000834196	3.06395e-05
2	0	0	1	1	24.1825	-0.593472	-0.59433	-0.0519438	2	-0.000835761	3.08718e-05
2	0	0	1	1	24.2125	-0.596471	-0.597336	-0.0521637	2	-0.000837332	3.11592e-05
2	0	0	1	1	24.2425	-0.59947	-0.600335	-0.0523265	2	-0.000838907	3.14134e-05
2	0	0	1	1	24.2725	-0.602469	-0.603353	-0.0525389	2	-0.000840489	3.16995e-05
2	0	0	1	1	24.3025	-0.605468	-0.606342	-0.0527255	2	-0.000842076	3.19696e-05
2	0	0	1	1	24.3325	-0.608467	-0.609332	-0.0528638	2	-0.000843668	3.22116e-05
2	0	0	1	1	24.3625	-0.611466	-0.612328	-0.0530669	2	-0.000845265	3.24944e-05
2	0	0	1	1	24.3925	-0.614465	-0.615336	-0.0532381	2	-0.000846869	3.27593e-05
2	0	0	1	1	24.4225	-0.617464	-0.618326	-0.0534569	2	-0.000848478	3.30538e-05
2	0	0	1	1	24.4525	-0.620463	-0.621355	-0.0536528	2	-0.000850093	3.33374e-05
2	0	0	1	1	24.4825	-0.623462	-0.624348	-0.0538282	2	-0.000851713	3.36075e-05
2	0	0	1	1	24.5125	-0.626461	-0.627348	-0.0540428	2	-0.000853339	3.39036e-05
2	0	0	1	1	24.5425	-0.629459	-0.630337	-0.0542399	2	-0.000854972	3.41894e-05
2	0	0	1	1	24.5725	-0.632458	-0.633344	-0.0544165	2	-0.00085661	3.44644e-05
2	0	0	1	1	24.6025	-0.635457	-0.636344	-0.0546476	2	-0.000858254	3.47747e-05
2	0	0	1	1	24.6325	-0.638456	-0.639315	-0.0548386	2	-0.000859905	3.50592e-05
2	0	0	1	1	24.6624	-0.641462	-0.642324	-0.0551152	2	-0.000861556	3.54018e-05
2	0	0	0	1	24.6923	-0.644454	-0.645331	-0.0552614	2	-0.000863214	3.56619e-05
2	0	0	0	1	24.7223	-0.647453	-0.648319	-0.055506	2	-0.000864884	3.59856e-05
2	0	0	0	1	24.7523	-0.650452	-0.651315	-0.0557124	2	-0.00086656	3.62863e-05
2	0	0	0	1	24.7823	-0.653451	-0.654339	-0.055959	2	-0.000868244	3.66162e-05
2	0	0	0	1	24.8123	-0.65645	-0.657333	-0.0562099	2	-0.000869934	3.69486e-05
2	0	0	0	1	24.8423	-0.659449	-0.660322	-0.0564245	2	-0.000871632	3.72583e-05
2	0	0	0	1	24.8723	-0.662448	-0.663342	-0.0566652	2	-0.000873337	3.75884e-05
2	0	0	0	1	24.9023	-0.665447	-0.666336	-0.0569308	2	-0.000875049	3.7935e-05
2	0	0	0	1	24.9323	-0.668446	-0.669333	-0.0572183	2	-0.00087677	3.82981e-05
2	0	0	0	1	24.9623	-0.671444	-0.6723	-0.0574461	2	-0.000878498	3.8621e-05
2	0	0	0	1	24.9923	-0.674443	-0.675317	-0.0577455	2	-0.000880234	3.89965e-05
2	0	0	0	1	25.0223	-0.677442	-0.678318	-0.0580426	2	-0.000881978	3.93714e-05
2	0	0	0	1	25.0523	-0.680441	-0.68131	-0.0583424	2	-0.000883732	3.97493e-05
2	0	0	0	1	25.0823	-0.68344	-0.684295	-0.0586275	2	-0.000885494	4.01185e-05
2	0	0	0	1	25.1123	-0.686439	-0.687307	-0.0589422	2	-0.000887265	4.05114e-05
2	0	0	0	1	25.1423	-0.689438	-0.690312	-0.0592498	2	-0.000889046	4.09008e-05
2	0	0	0	1	25.1723	-0.692437	-0.693318	-0.0595847	2	-0.000890836	4.13112e-05
2	0	0	0	1	25.2023	-0.695436	-0.696313	-0.0598968	2	-0.000892637	4.17069e-05
2	0	0	1	1	25.2321	-0.698435	-0.699306	-0.0602551	2	-0.000894435	4.21367e-05
2	0	0	1	1	25.2621	-0.701434	-0.702308	-0.060622	2	-0.000896257	4.25753e-05
2	0	0	1	1	25.2921	-0.704433	-0.705307	-0.0609771	2	-0.000898089	4.30076e-05
2	0	0	1	1	25.3221	-0.707432	-0.708299	-0.0613602	2	-0.000899933	4.34613e-05
2	0	0	1	1	25.3521	-0.710431	-0.711305	-0.0617713	2	-0.000901789	4.39382e-05
2	0	0	1	1	25.3821	-0.713429	-0.714289	-0.0621791	2	-0.000903656	4.44139e-05
2	0	0	1	1	25.4121	-0.716428	-0.717308	-0.0626462	2	-0.000905537	4.49366e-05
2	0	0	1	1	25.4421	-0.719427	-0.720309	-0.0630603	2	-0.00090743	4.54229e-05
2	0	0	1	1	25.4721	-0.722426	-0.723293	-0.0635064	2	-0.000909336	4.59337e-05
2	0	0	1	1	25.5021	-0.725425	-0.726304	-0.0639904	2	-0.000911257	4.64765e-05
2	0	0	1	1	25.5321	-0.728424	-0.729299	-0.0644735	2	-0.000913192	4.70205e-05
2	0	0	1	1	25.5621	-0.731423	-0.7323	-0.0649653	2	-0.000915142	4.7574e-05
2	0	0	1	1	25.5921	-0.734422	-0.73531	-0.0655184	2	-0.000917107	4.81763e-05
2	0	0	1	1	25.6221	-0.737421	-0.73832	-0.066065	2	-0.000919089	4.87771e-05
2	0	0	1	1	25.6521	-0.74042	-0.741302	-0.0666106	2	-0.000921087	4.93786e-05
2	0	0	1	1	25.6821	-0.743419	-0.744302	-0.0672363	2	-0.000923102	5.00441e-05
2	0	0	1	1	25.7121	-0.746418	-0.747311	-0.0678373	2	-0.000925136	5.06955e-05
2	0	0	1	1	25.7421	-0.749417	-0.750293	-0.0684509	2	-0.000927188	5.13582e-05
2	0	0	1	1	25.7721	-0.752416	-0.753289	-0.0691405	2	-0.00092926	5.20828e-05
2	0	0	0	1	25.8019	-0.755414	-0.756289	-0.0698186	2	-0.00093134	5.28031e-05
2	0	0	0	1	25.8319	-0.758413	-0.759295	-0.0705605	2	-0.000933454	5.35762e-05
2	0	0	0	1	25.8619	-0.761412	-0.762297	-0.0712783	2	-0.00093559	5.43352e-05
2	0	0	0	1	25.8919	-0.764411	-0.765294	-0.0721441	2	-0.00093775	5.52115e-05
2	0	0	0	1	25.9219	-0.76741	-0.768281	-0.0729309	2	-0.000939933	5.60314e-05
2	0	0	0	1	25.9519	-0.770409	-0.771284	-0.0737841	2	-0.000942142	5.69085e-05
2	0	0	0	1	25.9819	-0.773408	-0.77427	-0.0746789	2	-0.000944378	5.78216e-05
2	0	0	0	1	26.0119	-0.776407	-0.777282	-0.0756544	2	-0.000946641	5.88048e-05
2	0	0	0	1	26.0419	-0.779406	-0.780282	-0.0766288	2	-0.000948933	5.9792e-05
2	0	0	0	1	26.0719	-0.782405	-0.783283	-0.0776646	2	-0.000951256	6.08334e-05
2	0	0	0	1	26.1019	-0.785404	-0.786284	-0.0786924	2	-0.00095361	6.18746e-05
2	0	0	0	1	26.1319	-0.788403	-0.789272	-0.0798288	2	-0.000955997	6.30066e-05
2	0	0	0	1	26.1619	-0.791402	-0.792284	-0.0810342	2	-0.000958418	6.42021e-05
2	0	0	0	1	26.1919	-0.794401	-0.795255	-0.0822396	2	-0.000960876	6.54015e-05
2	0	0	0	1	26.2219	-0.797399	-0.798281	-0.0835237	2	-0.000963371	6.66754e-05
2	0	0	0	1	26.2519	-0.800398	-0.801276	-0.0848543	2	-0.000965905	6.79917e-05
2	0	0	0	1	26.2819	-0.803397	-0.80426	-0.0862727	2	-0.000968479	6.93856e-05
2	0	0	0	1	26.3119	-0.806396	-0.807269	-0.0876698	2	-0.000971097	7.07731e-05
2	0	0	0	1	26.3418	-0.809404	-0.810289	-0.0892472	2	-0.000973751	7.2316e-05
2	0	0	1	1	26.3717	-0.812394	-0.813271	-0.0908056	2	-0.00097645	7.38495e-05
2	0	0	1	1	26.4017	-0.815393	-0.816282	-0.0924198	2	-0.000979207	7.54406e-05
2	0	0	1	1	26.4317	-0.818392	-0.819283	-0.0941761	2	-0.000982014	7.71568e-05
2	0	0	1	1	26.4617	-0.821391	-0.82229	-0.0959177	2	-0.000984873	7.88721e-05
2	0	0	1	1	26.4917	-0.82439	-0.825269	-0.0977535	2	-0.000987786	8.06729e-05
2	0	0	1	1	26.5217	-0.827389	-0.828277	-0.0996845	2	-0.000990755	8.25664e-05
2	0	0	1	1	26.5517	-0.830388	-0.831288	-0.101705	2	-0.000993783	8.45458e-05
2	0	0	0	1	26.6127	-0.836486	-0.837344	-0.105486	2	-0.0010001	8.8328e-05
2	0	0	0	1	26.6427	-0.839484	-0.840328	-0.107755	2	-0.00100331	9.05499e-05
2	0	0	0	1	26.6727	-0.842483	-0.843334	-0.110043	2	-0.0010066	9.28032e-05
2	0	0	0	1	26.7027	-0.845482	-0.846326	-0.112402	2	-0.00100995	9.51286e-05
2	0	0	0	1	26.7327	-0.848481	-0.849316	-0.114911	2	-0.00101338	9.75954e-05
2	0	0	0	1	26.7627	-0.85148	-0.852313	-0.117497	2	-0.00101688	0.000100144
2	0	0	0	1	26.7927	-0.854479	-0.855313	-0.120224	2	-0.00102046	0.000102829
2	0	0	0	1	26.8227	-0.857478	-0.858313	-0.122995	2	-0.00102413	0.000105568
2	0	0	0	1	26.8527	-0.860477	-0.861321	-0.125951	2	-0.00102788	0.000108484
2	0	0	0	1	26.8827	-0.863476	-0.864321	-0.128833	2	-0.00103172	0.000111353
2	0	0	1	1	26.9125	-0.866475	-0.86732	-0.132033	2	-0.00103562	0.000114515
2	0	0	1	1	26.9425	-0.869474	-0.870328	-0.135197	2	-0.00103965	0.000117666
2	0	0	1	1	26.9725	-0.872473	-0.873304	-0.138548	2	-0.00104377	0.000120995
2	0	0	1	1	27.0025	-0.875472	-0.87631	-0.141983	2	-0.001048	0.000124421
2	0	0	1	1	27.0325	-0.87847	-0.879321	-0.145656	2	-0.00105233	0.000128079
2	0	0	1	1	27.0625	-0.881469	-0.882321	-0.149356	2	-0.00105677	0.00013178
2	0	0	1	1	27.0925	-0.884468	-0.885301	-0.153209	2	-0.00106133	0.000135636
2	0	0	1	1	27.1225	-0.887467	-0.888328	-0.157197	2	-0.001066	0.000139642
2	0	0	1	1	27.1525	-0.890466	-0.89132	-0.161294	2	-0.00107079	0.000143765
2	0	0	1	1	27.1825	-0.893465	-0.894319	-0.165605	2	-0.00107572	0.000148104
2	0	0	1	1	27.2125	-0.896464	-0.897306	-0.169976	2	-0.00108077	0.000152521
2	0	0	1	1	27.2425	-0.899463	-0.900326	-0.174614	2	-0.00108595	0.00015721
2	1	0	0	0	27.2639	-0.898463	-0.899308	-0.16959	2	-0.00108964	0.000152513
2	1	0	0	0	27.2939	-0.895464	-0.896295	-0.162644	2	-0.0010946	0.000145777
2	1	0	0	0	27.3239	-0.892465	-0.89331	-0.156597	2	-0.00109937	0.00013989
2	1	0	0	0	27.3539	-0.889467	-0.890305	-0.151084	2	-0.00110397	0.000134511
2	1	0	0	0	27.3839	-0.886468	-0.887305	-0.14578	2	-0.0011084	0.000129351
2	1	0	0	0	27.4139	-0.883469	-0.884308	-0.140853	2	-0.00111268	0.000124558
2	1	0	0	0	27.4439	-0.88047	-0.881305	-0.136117	2	-0.00111682	0.00011996
2	1	0	0	0	27.4739	-0.877471	-0.878308	-0.131597	2	-0.00112082	0.000115582
2	1	0	0	0	27.5039	-0.874472	-0.875324	-0.127316	2	-0.00112468	0.000111443
2	1	0	0	0	27.5339	-0.871473	-0.872317	-0.12316	2	-0.00112842	0.000107435
2	1	0	0	0	27.5639	-0.868474	-0.869304	-0.11913	2	-0.00113204	0.00010356
2	1	0	0	0	27.5938	-0.865484	-0.86632	-0.115329	2	-0.00113552	9.99115e-05
2	1	0	1	0	27.6237	-0.862476	-0.863287	-0.111633	2	-0.0011389	9.63709e-05
2	1	0	1	0	27.6537	-0.859477	-0.860305	-0.108038	2	-0.00114218	9.29456e-05
2	1	0	1	0	27.6837	-0.856478	-0.857297	-0.104714	2	-0.00114535	8.97707e-05
2	1	0	1	0	27.7137	-0.853479	-0.854301	-0.101486	2	-0.00114843	8.67e-05
2	1	0	1	0	27.7437	-0.85048	-0.851303	-0.0983148	2	-0.0011514	8.36957e-05
2	1	0	1	0	27.7737	-0.847481	-0.848315	-0.0953074	2	-0.00115429	8.08507e-05
2	1	0	1	0	27.8037	-0.844483	-0.845309	-0.0922991	2	-0.00115709	7.80212e-05
2	1	0	1	0	27.8337	-0.841484	-0.842317	-0.0896058	2	-0.0011598	7.54765e-05
2	1	0	1	0	27.8637	-0.838485	-0.839326	-0.0868788	2	-0.00116243	7.29196e-05
2	1	0	1	0	27.8937	-0.835486	-0.83633	-0.0842774	2	-0.00116498	7.04838e-05
2	1	0	1	0	27.9237	-0.832487	-0.833339	-0.0818171	2	-0.00116745	6.81814e-05
2	1	0	1	0	27.9537	-0.829488	-0.830331	-0.0793786	2	-0.00116985	6.59105e-05
2	1	0	1	0	27.9837	-0.826489	-0.827332	-0.0770025	2	-0.00117218	6.37067e-05
2	1	0	1	0	28.0137	-0.82349	-0.824337	-0.0747601	2	-0.00117444	6.16275e-05
2	1	0	1	0	28.0437	-0.820491	-0.821334	-0.0726279	2	-0.00117663	5.96517e-05
2	1	0	1	0	28.0737	-0.817492	-0.818335	-0.0705145	2	-0.00117876	5.77044e-05
2	1	0	1	0	28.1037	-0.814493	-0.815323	-0.0684942	2	-0.00118083	5.58449e-05
2	1	0	1	0	28.1337	-0.811494	-0.812322	-0.0665908	2	-0.00118284	5.40931e-05
2	1	0	0	0	28.1635	-0.808495	-0.809326	-0.0647025	2	-0.00118478	5.23654e-05
2	1	0	0	0	28.1935	-0.805497	-0.806331	-0.0629703	2	-0.00118668	5.07749e-05
2	1	0	0	0	28.2235	-0.802498	-0.803325	-0.0612772	2	-0.00118852	4.92255e-05
2	1	0	0	0	28.2535	-0.799499	-0.800326	-0.0595622	2	-0.00119032	4.76692e-05
2	1	0	0	0	28.2835	-0.7965	-0.797349	-0.0580812	2	-0.00119207	4.6311e-05
2	1	0	0	0	28.3135	-0.793501	-0.794335	-0.0565425	2	-0.00119377	4.49137e-05
2	1	0	0	0	28.3435	-0.790502	-0.791348	-0.0550421	2	-0.00119542	4.35575e-05
2	1	0	0	0	28.3735	-0.787503	-0.788333	-0.0536007	2	-0.00119704	4.22553e-05
2	1	0	0	0	28.4035	-0.784504	-0.785337	-0.0522437	2	-0.00119861	4.10289e-05
2	1	0	0	0	28.4335	-0.781505	-0.782337	-0.0509079	2	-0.00120014	3.98272e-05
2	1	0	0	0	28.4635	-0.778506	-0.779347	-0.0496517	2	-0.00120163	3.86959e-05
2	1	0	0	0	28.4935	-0.775507	-0.776322	-0.0484856	2	-0.00120308	3.76405e-05
2	1	0	0	0	28.5535	-0.769509	-0.770323	-0.046069	2	-0.00120593	3.5488e-05
2	1	0	0	0	28.5835	-0.76651	-0.767324	-0.0450031	2	-0.00120729	3.4532e-05
2	1	0	0	0	28.6135	-0.763512	-0.764325	-0.0439894	2	-0.00120861	3.36222e-05
2	1	0	0	0	28.6435	-0.760513	-0.761342	-0.0429877	2	-0.00120991	3.27283e-05
2	1	0	0	0	28.6735	-0.757514	-0.758338	-0.0420608	2	-0.00121118	3.18964e-05
2	1	0	0	0	28.7035	-0.754515	-0.755344	-0.0410783	2	-0.00121242	3.10283e-05
2	1	0	1	0	28.7333	-0.751516	-0.752332	-0.0402426	2	-0.00121362	3.02758e-05
2	1	0	1	0	28.7633	-0.748517	-0.749336	-0.03941	2	-0.00121481	2.95313e-05
2	1	0	1	0	28.7933	-0.745518	-0.74634	-0.0385592	2	-0.00121597	2.87783e-05
2	1	0	1	0	28.8233	-0.742519	-0.743345	-0.0378036	2	-0.0012171	2.81011e-05
2	1	0	1	0	28.8533	-0.73952	-0.740348	-0.0370706	2	-0.00121822	2.74452e-05
2	1	0	1	0	28.8833	-0.736521	-0.737341	-0.0363576	2	-0.00121931	2.6808e-05
2	1	0	1	0	28.9133	-0.733522	-0.734351	-0.0356426	2	-0.00122039	2.61742e-05
2	1	0	1	0	28.9433	-0.730523	-0.731359	-0.0350123	2	-0.00122144	2.56066e-05
2	1	0	1	0	28.9733	-0.727524	-0.72835	-0.0343821	2	-0.00122247	2.50422e-05
2	1	0	1	0	29.0033	-0.724526	-0.725343	-0.0337948	2	-0.00122349	2.45128e-05
2	1	0	1	0	29.0333	-0.721527	-0.722356	-0.033228	2	-0.00122448	2.40024e-05
2	1	0	1	0	29.0633	-0.718528	-0.71935	-0.0327171	2	-0.00122546	2.3535e-05
2	1	0	1	0	29.0933	-0.715529	-0.716359	-0.0321318	2	-0.00122643	2.30179e-05
2	1	0	1	0	29.1233	-0.71253	-0.713359	-0.0316168	2	-0.00122737	2.25542e-05
2	1	0	1	0	29.1533	-0.709531	-0.710344	-0.031142	2	-0.00122831	2.21215e-05
2	1	0	1	0	29.1833	-0.706532	-0.70735	-0.0306746	2	-0.00122923	2.16977e-05
2	1	0	1	0	29.2133	-0.703533	-0.704349	-0.0302408	2	-0.00123013	2.13001e-05
2	1	0	1	0	29.2433	-0.700534	-0.701346	-0.0297794	2	-0.00123102	2.08857e-05
2	1	0	1	0	29.2732	-0.697544	-0.698363	-0.0293632	2	-0.0012319	2.05062e-05
2	1	0	0	0	29.3031	-0.694536	-0.69535	-0.0289733	2	-0.00123276	2.01466e-05
2	1	0	0	0	29.3331	-0.691537	-0.692344	-0.0285875	2	-0.00123362	1.97924e-05
2	1	0	0	0	29.3631	-0.688538	-0.689354	-0.0281913	2	-0.00123446	1.94338e-05
2	1	0	0	0	29.3931	-0.685539	-0.686348	-0.0278608	2	-0.0012353	1.91222e-05
2	1	0	0	0	29.4231	-0.68254	-0.683354	-0.0275032	2	-0.00123612	1.87944e-05
2	1	0	0	0	29.4531	-0.679542	-0.680357	-0.0271932	2	-0.00123693	1.85011e-05
2	1	0	0	0	29.4831	-0.676543	-0.677347	-0.0268196	2	-0.00123773	1.81662e-05
2	1	0	0	0	29.5131	-0.673544	-0.674351	-0.0265481	2	-0.00123853	1.79027e-05
2	1	0	0	0	29.5431	-0.670545	-0.671363	-0.0262817	2	-0.00123931	1.76446e-05
2	1	0	0	0	29.5731	-0.667546	-0.66836	-0.0260027	2	-0.00124009	1.73792e-05
2	1	0	0	0	29.6031	-0.664547	-0.66537	-0.0257082	2	-0.00124085	1.71055e-05
2	1	0	0	0	29.6331	-0.661548	-0.662378	-0.0254361	2	-0.00124161	1.68483e-05
2	1	0	0	0	29.6631	-0.658549	-0.659371	-0.0251812	2	-0.00124236	1.66038e-05
2	1	0	0	0	29.6931	-0.65555	-0.656375	-0.0249347	2	-0.00124311	1.63665e-05
2	1	0	0	0	29.7231	-0.652551	-0.653374	-0.0246312	2	-0.00124384	1.60934e-05
2	1	0	0	0	29.7531	-0.649552	-0.65037	-0.0244263	2	-0.00124457	1.58861e-05
2	1	0	0	0	29.7831	-0.646553	-0.647378	-0.0242099	2	-0.00124529	1.5673e-05
2	1	0	0	0	29.8131	-0.643554	-0.644366	-0.0239441	2	-0.001246	1.54288e-05
2	1	0	1	0	29.8429	-0.640556	-0.64137	-0.0237411	2	-0.00124671	1.52268e-05
2	1	0	1	0	29.8729	-0.637557	-0.638377	-0.0235014	2	-0.0012474	1.50027e-05
2	1	0	1	0	29.9029	-0.634558	-0.635375	-0.0232802	2	-0.0012481	1.47917e-05
2	1	0	1	0	29.9329	-0.631559	-0.632391	-0.0230598	2	-0.00124878	1.45828e-05
2	1	0	1	0	29.9629	-0.62856	-0.629375	-0.0228247	2	-0.00124946	1.43653e-05
2	1	0	1	0	29.9929	-0.625561	-0.626373	-0.0226355	2	-0.00125014	1.41783e-05
2	1	0	1	0	30.0229	-0.622562	-0.623394	-0.0224331	2	-0.00125081	1.39846e-05
2	1	0	1	0	30.0529	-0.619563	-0.620364	-0.0222182	2	-0.00125147	1.37834e-05
2	1	0	1	0	30.0829	-0.616564	-0.617384	-0.0220141	2	-0.00125212	1.35911e-05
2	1	0	1	0	30.1129	-0.613565	-0.614375	-0.0218159	2	-0.00125277	1.34031e-05
2	1	0	1	0	30.1429	-0.610566	-0.611368	-0.0215978	2	-0.00125341	1.32042e-05
2	1	0	1	0	30.1729	-0.607567	-0.608362	-0.0213715	2	-0.00125405	1.30016e-05
2	1	0	1	0	30.2029	-0.604568	-0.605372	-0.0211965	2	-0.00125468	1.28318e-05
2	1	0	1	0	30.2329	-0.601569	-0.602372	-0.0210057	2	-0.00125531	1.26533e-05
2	1	0	1	0	30.2629	-0.59857	-0.599363	-0.0207502	2	-0.00125592	1.24369e-05
2	1	0	1	0	30.2929	-0.595572	-0.596361	-0.0205814	2	-0.00125654	1.2274e-05
2	1	0	1	0	30.3229	-0.592573	-0.593371	-0.0204058	2	-0.00125714	1.21082e-05
2	1	0	1	0	30.3529	-0.589574	-0.590373	-0.020231	2	-0.00125774	1.19438e-05
2	1	0	1	0	30.3829	-0.586575	-0.587395	-0.0199781	2	-0.00125834	1.1735e-05
2	1	0	0	0	30.4127	-0.583576	-0.58438	-0.0197845	2	-0.00125892	1.15616e-05
2	1	0	0	0	30.4427	-0.580577	-0.581372	-0.0195927	2	-0.0012595	1.13907e-05
2	1	0	0	0	30.4727	-0.577578	-0.578385	-0.0193857	2	-0.00126008	1.12124e-05
2	1	0	0	0	30.5027	-0.574579	-0.575391	-0.0191973	2	-0.00126065	1.10459e-05
2	1	0	0	0	30.5327	-0.57158	-0.57238	-0.0189713	2	-0.00126122	1.08588e-05
2	1	0	0	0	30.5627	-0.568581	-0.569374	-0.0187767	2	-0.00126177	1.0691e-05
2	1	0	0	0	30.5927	-0.565582	-0.566385	-0.0185508	2	-0.00126233	1.05069e-05
2	1	0	0	0	30.6227	-0.562583	-0.5634	-0.0183743	2	-0.00126287	1.03521e-05
2	1	0	0	0	30.6527	-0.559584	-0.560391	-0.0181729	2	-0.00126341	1.01839e-05
2	1	0	0	0	30.6827	-0.556586	-0.557396	-0.0179647	2	-0.00126394	1.00134e-05
2	1	0	0	0	30.7127	-0.553587	-0.554402	-0.0177342	2	-0.00126447	9.83189e-06
2	1	0	0	0	30.7427	-0.550588	-0.551393	-0.0175498	2	-0.00126499	9.67682e-06
2	1	0	0	0	30.7727	-0.547589	-0.54838	-0.0172948	2	-0.00126551	9.4841e-06
2	1	0	0	0	30.8027	-0.54459	-0.545398	-0.0170822	2	-0.00126601	9.31658e-06
2	1	0	0	0	30.8327	-0.541591	-0.542391	-0.0169281	2	-0.00126652	9.18166e-06
2	1	0	0	0	30.8627	-0.538592	-0.539391	-0.0166685	2	-0.00126701	8.99086e-06
2	1	0	0	0	30.8927	-0.535593	-0.5364	-0.016432	2	-0.0012675	8.81411e-06
2	1	0	0	0	30.9227	-0.532594	-0.533404	-0.0162386	2	-0.00126798	8.66173e-06
2	1	0	0	0	30.9526	-0.529602	-0.530407	-0.0160505	2	-0.00126846	8.51332e-06
2	1	0	1	0	30.9825	-0.526596	-0.527403	-0.0157769	2	-0.00126892	8.32077e-06
2	1	0	1	0	31.0125	-0.523597	-0.524402	-0.0155592	2	-0.00126939	8.1593e-06
2	1	0	1	0	31.0425	-0.520598	-0.521418	-0.0153802	2	-0.00126984	8.01953e-06
2	1	0	1	0	31.0725	-0.517599	-0.518406	-0.0151093	2	-0.00127029	7.83278e-06
2	1	0	1	0	31.1025	-0.514601	-0.515411	-0.0149178	2	-0.00127073	7.6888e-06
2	1	0	1	0	31.1325	-0.511602	-0.512403	-0.0146259	2	-0.00127117	7.49434e-06
2	1	0	1	0	31.1625	-0.508603	-0.509393	-0.0144199	2	-0.0012716	7.34538e-06
2	1	0	1	0	31.1925	-0.505604	-0.506411	-0.0142528	2	-0.00127202	7.2178e-06
2	1	0	1	0	31.2225	-0.502605	-0.503384	-0.0139901	2	-0.00127243	7.04238e-06
2	1	0	1	0	31.2525	-0.499606	-0.500405	-0.0137378	2	-0.00127284	6.87449e-06
2	1	0	1	0	31.2825	-0.496607	-0.497384	-0.0135044	2	-0.00127324	6.71687e-06
2	1	0	1	0	31.3125	-0.493608	-0.494384	-0.0132394	2	-0.00127363	6.54537e-06
2	1	0	1	0	31.3425	-0.490609	-0.491393	-0.0130161	2	-0.00127402	6.39604e-06
2	1	0	1	0	31.3725	-0.48761	-0.488402	-0.012746	2	-0.0012744	6.22515e-06
2	1	0	1	0	31.4025	-0.484611	-0.485439	-0.0125678	2	-0.00127477	6.10089e-06
2	1	0	1	0	31.4325	-0.481612	-0.482406	-0.0122762	2	-0.00127513	5.9221e-06
2	1	0	1	0	31.4625	-0.478613	-0.479405	-0.0120339	2	-0.00127549	5.76909e-06
2	1	0	1	0	31.4925	-0.475614	-0.476401	-0.0117983	2	-0.00127584	5.62075e-06
2	1	0	0	0	31.5223	-0.472616	-0.473404	-0.0115152	2	-0.00127618	5.45131e-06
2	1	0	0	0	31.5523	-0.469617	-0.470412	-0.0112515	2	-0.00127651	5.29285e-06
2	1	0	0	0	31.5823	-0.466618	-0.467416	-0.0110093	2	-0.00127684	5.14593e-06
2	1	0	0	0	31.6123	-0.463619	-0.464427	-0.0107397	2	-0.00127715	4.9878e-06
2	1	0	0	0	31.6423	-0.46062	-0.461412	-0.0104695	2	-0.00127746	4.83077e-06
2	1	0	0	0	31.6723	-0.457621	-0.458413	-0.0101692	2	-0.00127776	4.66168e-06
2	1	0	0	0	31.7023	-0.454622	-0.455403	-0.00990304	2	-0.00127806	4.50987e-06
2	1	0	0	0	31.7323	-0.451623	-0.452405	-0.00965358	2	-0.00127834	4.36733e-06
2	1	0	0	0	31.7623	-0.448624	-0.449403	-0.00934465	2	-0.00127862	4.19951e-06
2	1	0	0	0	31.7923	-0.445625	-0.446407	-0.00906027	2	-0.00127889	4.04457e-06
2	1	0	0	0	31.8223	-0.442626	-0.443406	-0.00881622	2	-0.00127915	3.90917e-06
2	1	0	0	0	31.8523	-0.439627	-0.440418	-0.0085178	2	-0.0012794	3.75139e-06
2	1	0	0	0	31.8823	-0.436628	-0.437425	-0.00819837	2	-0.00127964	3.58617e-06
2	1	0	0	0	31.9123	-0.433629	-0.43444	-0.00794343	2	-0.00127988	3.45094e-06
2	1	0	0	0	31.9423	-0.430631	-0.431443	-0.00760644	2	-0.0012801	3.28175e-06
2	1	0	0	0	31.9723	-0.427632	-0.428432	-0.00734056	2	-0.00128032	3.14493e-06
2	1	0	0	0	32.0023	-0.424633	-0.425439	-0.00706593	2	-0.00128053	3.00612e-06
2	1	0	0	0	32.0323	-0.421634	-0.422433	-0.0067895	2	-0.00128073	2.86811e-06
2	1	0	0	0	32.0623	-0.418635	-0.419427	-0.00646994	2	-0.00128092	2.71367e-06
2	1	0	1	0	32.0921	-0.415636	-0.416442	-0.00614853	2	-0.0012811	2.56051e-06
2	1	0	1	0	32.1221	-0.412637	-0.413439	-0.00584576	2	-0.00128127	2.41686e-06
2	1	0	1	0	32.1521	-0.409638	-0.410445	-0.00556967	2	-0.00128143	2.28604e-06
2	1	0	1	0	32.1821	-0.406639	-0.407425	-0.00524867	2	-0.00128158	2.13844e-06
2	1	0	1	0	32.2121	-0.40364	-0.40442	-0.00498002	2	-0.00128173	2.01402e-06
2	1	0	1	0	32.2576	-0.399092	-0.39988	-0.00437895	2	-0.00128193	1.75105e-06
2	1	0	0	0	32.3031	-0.394543	-0.39532	-0.00378705	2	-0.00128211	1.49709e-06
2	1	0	0	0	32.3331	-0.391544	-0.392323	-0.0034878	2	-0.00128222	1.36835e-06
2	1	0	0	0	32.3631	-0.388546	-0.389318	-0.00320912	2	-0.00128232	1.24937e-06
2	1	0	0	0	32.3931	-0.385547	-0.386318	-0.00290851	2	-0.00128241	1.12361e-06
2	1	0	0	0	32.4231	-0.382548	-0.383321	-0.00261624	2	-0.00128249	1.00286e-06
2	1	0	0	0	32.4531	-0.379549	-0.38033	-0.00230982	2	-0.00128256	8.78493e-07
2	1	0	0	0	32.4831	-0.37655	-0.377313	-0.00202315	2	-0.00128263	7.6336e-07
2	1	0	0	0	32.5131	-0.373551	-0.374328	-0.00172822	2	-0.00128268	6.4692e-07
2	1	0	0	0	32.5431	-0.370552	-0.371321	-0.00144796	2	-0.00128273	5.37659e-07
2	1	0	0	0	32.5731	-0.367553	-0.368309	-0.00114084	2	-0.00128277	4.20183e-07
2	1	0	0	0	32.6031	-0.364554	-0.365317	-0.000860868	2	-0.0012828	3.1449e-07
2	1	0	0	0	32.633	-0.36156	-0.362317	-0.000548591	2	-0.00128282	1.98764e-07
2	1	0	1	0	32.6629	-0.358556	-0.359335	-0.000284658	2	-0.00128283	1.02288e-07
2	1	0	1	0	32.6929	-0.355557	-0.356337	8.94616e-07	2	-0.00128284	3.18785e-10
2	1	0	1	0	32.7229	-0.352558	-0.353345	0.000280552	2	-0.00128283	9.91315e-08
2	1	0	1	0	32.7529	-0.349559	-0.350343	0.000563041	2	-0.00128282	1.97258e-07
2	1	0	1	0	32.7829	-0.346561	-0.347334	0.00085253	2	-0.0012828	2.96113e-07
2	1	0	1	0	32.8129	-0.343562	-0.344341	0.00114769	2	-0.00128277	3.95197e-07
2	1	0	1	0	32.8429	-0.340563	-0.341332	0.00140963	2	-0.00128273	4.8115e-07
2	1	0	1	0	32.8729	-0.337564	-0.338324	0.00168109	2	-0.00128268	5.68753e-07
2	1	0	1	0	32.9029	-0.334565	-0.335331	0.00197853	2	-0.00128263	6.63462e-07
2	1	0	1	0	32.9329	-0.331566	-0.332336	0.00225232	2	-0.00128256	7.48526e-07
2	1	0	1	0	32.9629	-0.328567	-0.329333	0.0025376	2	-0.00128249	8.35714e-07
2	1	0	1	0	32.9929	-0.325568	-0.326338	0.00281279	2	-0.00128241	9.17921e-07
2	1	0	1	0	33.0229	-0.322569	-0.323338	0.00308602	2	-0.00128232	9.97829e-07
2	1	0	1	0	33.0529	-0.31957	-0.320346	0.00337641	2	-0.00128222	1.08162e-06
2	1	0	1	0	33.0829	-0.316571	-0.31734	0.00366374	2	-0.00128212	1.16265e-06
2	1	0	1	0	33.1129	-0.313572	-0.314335	0.00395082	2	-0.001282	1.24188e-06
2	1	0	1	0	33.1429	-0.310573	-0.311342	0.00424514	2	-0.00128188	1.32169e-06
2	1	0	1	0	33.1729	-0.307574	-0.308353	0.00453805	2	-0.00128175	1.39932e-06
2	1	0	0	0	33.2027	-0.304576	-0.305343	0.00484896	2	-0.00128161	1.48059e-06
2	1	0	0	0	33.2327	-0.301577	-0.302337	0.00513443	2	-0.00128146	1.55233e-06
2	1	0	0	0	33.2627	-0.298578	-0.299322	0.00543907	2	-0.0012813	1.62803e-06
2	1	0	0	0	33.2927	-0.295579	-0.296332	0.00573431	2	-0.00128113	1.69926e-06
2	1	0	0	0	33.3227	-0.29258	-0.29333	0.00605593	2	-0.00128095	1.77639e-06
2	1	0	0	0	33.3527	-0.289581	-0.290321	0.0063784	2	-0.00128077	1.85178e-06
2	1	0	0	0	33.3827	-0.286582	-0.287331	0.00666565	2	-0.00128057	1.91525e-06
2	1	0	0	0	33.4127	-0.283583	-0.284343	0.00699155	2	-0.00128037	1.988e-06
2	1	0	0	0	33.4427	-0.280584	-0.28134	0.00730883	2	-0.00128015	2.05627e-06
2	1	0	0	0	33.4727	-0.277585	-0.278348	0.00763971	2	-0.00127993	2.1265e-06
2	1	0	0	0	33.5027	-0.274586	-0.275348	0.00798956	2	-0.00127969	2.19991e-06
2	1	0	0	0	33.5327	-0.271587	-0.27235	0.00831358	2	-0.00127945	2.2642e-06
2	1	0	0	0	33.5627	-0.268588	-0.269356	0.00866579	2	-0.00127919	2.33419e-06
2	1	0	0	0	33.5927	-0.26559	-0.266345	0.00901381	2	-0.00127893	2.40078e-06
2	1	0	0	0	33.6227	-0.262591	-0.263331	0.00936294	2	-0.00127865	2.46555e-06
2	1	0	0	0	33.6527	-0.259592	-0.26036	0.00970837	2	-0.00127836	2.52767e-06
2	1	0	0	0	33.6827	-0.256593	-0.257337	0.0100786	2	-0.00127807	2.59361e-06
2	1	0	1	0	33.7437	-0.250495	-0.251275	0.0105894	2	-0.00127743	2.66084e-06
2	1	0	0	0	33.7735	-0.247496	-0.248291	0.010922	2	-0.00127711	2.71184e-06
2	1	0	0	0	33.8035	-0.244497	-0.245279	0.0113122	2	-0.00127676	2.77464e-06
2	1	0	0	0	33.8335	-0.241498	-0.242285	0.0116548	2	-0.00127641	2.82378e-06
2	1	0	0	0	33.8635	-0.238499	-0.239271	0.0120532	2	-0.00127605	2.88397e-06
2	1	0	0	0	33.8935	-0.2355	-0.236285	0.0123952	2	-0.00127567	2.92881e-06
2	1	0	0	0	33.9235	-0.232501	-0.233291	0.0128283	2	-0.00127528	2.99272e-06
2	1	0	0	0	33.9535	-0.229502	-0.230291	0.0131874	2	-0.00127488	3.03693e-06
2	1	0	0	0	33.9835	-0.226503	-0.227285	0.013562	2	-0.00127447	3.08245e-06
2	1	0	0	0	34.0135	-0.223505	-0.224292	0.014002	2	-0.00127405	3.14054e-06
2	1	0	0	0	34.0435	-0.220506	-0.221299	0.0143741	2	-0.00127362	3.18098e-06
2	1	0	0	0	34.0735	-0.217507	-0.218296	0.0147663	2	-0.00127317	3.22342e-06
2	1	0	0	0	34.1035	-0.214508	-0.215274	0.0151354	2	-0.00127272	3.25827e-06
2	1	0	0	0	34.1335	-0.211509	-0.212287	0.0154789	2	-0.00127225	3.28597e-06
2	1	0	0	0	34.1635	-0.20851	-0.209294	0.01588	2	-0.00127177	3.32358e-06
2	1	0	0	0	34.1935	-0.205511	-0.206296	0.0163072	2	-0.00127128	3.36411e-06
2	1	0	0	0	34.2235	-0.202512	-0.203308	0.0166902	2	-0.00127078	3.39325e-06
2	1	0	0	0	34.2535	-0.199513	-0.200301	0.0170701	2	-0.00127026	3.41916e-06
2	1	0	0	0	34.2835	-0.196514	-0.19729	0.0174662	2	-0.00126974	3.4459e-06
2	1	0	0	0	34.3134	-0.193515	-0.194301	0.0177996	2	-0.0012692	3.45847e-06
2	1	0	1	0	34.3433	-0.190516	-0.191299	0.0181225	2	-0.00126865	3.46682e-06
2	1	0	1	0	34.3733	-0.187517	-0.188286	0.0185174	2	-0.0012681	3.48656e-06
2	1	0	1	0	34.4033	-0.184518	-0.185293	0.0188871	2	-0.00126753	3.49965e-06
2	1	0	1	0	34.4333	-0.18152	-0.182293	0.0192118	2	-0.00126695	3.50217e-06
2	1	0	1	0	34.4633	-0.178521	-0.179292	0.0194997	2	-0.00126636	3.49613e-06
2	1	0	1	0	34.4933	-0.175522	-0.176286	0.01982	2	-0.00126576	3.494e-06
2	1	0	1	0	34.5233	-0.172523	-0.173305	0.0200917	2	-0.00126515	3.48199e-06
2	1	0	1	0	34.5533	-0.169524	-0.170317	0.0203415	2	-0.00126454	3.46451e-06
2	1	0	1	0	34.5833	-0.166525	-0.167295	0.0205911	2	-0.00126391	3.44478e-06
2	1	0	1	0	34.6133	-0.163526	-0.164302	0.0208289	2	-0.00126328	3.42223e-06
2	1	0	1	0	34.6433	-0.160527	-0.161312	0.0210161	2	-0.00126265	3.39015e-06
2	1	0	1	0	34.6733	-0.157528	-0.158306	0.0211986	2	-0.00126201	3.35587e-06
2	1	0	1	0	34.7033	-0.154529	-0.155296	0.0213323	2	-0.00126136	3.31282e-06
2	1	0	1	0	34.7333	-0.15153	-0.152296	0.0214426	2	-0.00126071	3.26563e-06
2	1	0	1	0	34.7633	-0.148531	-0.149295	0.021521	2	-0.00126006	3.21298e-06
2	1	0	1	0	34.7933	-0.145532	-0.146306	0.0215627	2	-0.0012594	3.15475e-06
2	1	0	1	0	34.8233	-0.142533	-0.143299	0.0215815	2	-0.00125875	3.09262e-06
2	1	0	1	0	34.8533	-0.139535	-0.140309	0.0215945	2	-0.00125809	3.0299e-06
2	1	0	0	0	34.8831	-0.136536	-0.137307	0.0215413	2	-0.00125744	2.95777e-06
2	1	0	0	0	34.9131	-0.133537	-0.134311	0.021459	2	-0.00125679	2.88219e-06
2	1	0	0	0	34.9431	-0.130538	-0.131295	0.0213206	2	-0.00125614	2.79929e-06
2	1	0	0	0	34.9731	-0.127539	-0.128305	0.0212489	2	-0.00125549	2.72635e-06
2	1	0	0	0	35.0031	-0.12454	-0.125329	0.0210106	2	-0.00125485	2.63323e-06
2	1	0	0	0	35.0331	-0.121541	-0.122313	0.0208432	2	-0.00125421	2.5494e-06
2	1	0	0	0	35.0631	-0.118542	-0.119336	0.0205623	2	-0.00125358	2.45381e-06
2	1	0	0	0	35.0931	-0.115543	-0.116325	0.0204063	2	-0.00125296	2.37377e-06
2	1	0	0	0	35.1231	-0.112544	-0.113325	0.0201837	2	-0.00125234	2.28732e-06
2	1	0	0	0	35.1531	-0.109545	-0.110317	0.0198736	2	-0.00125173	2.1924e-06
2	1	0	0	0	35.1831	-0.106546	-0.107329	0.0196163	2	-0.00125113	2.10538e-06
2	1	0	0	0	35.2131	-0.103547	-0.104315	0.0192836	2	-0.00125054	2.01157e-06
2	1	0	0	0	35.2431	-0.100548	-0.101328	0.0190119	2	-0.00124996	1.92644e-06
2	1	0	0	0	35.2731	-0.0975495	-0.0983002	0.0187319	2	-0.00124938	1.84135e-06
2	1	0	0	0	35.3031	-0.0945506	-0.0953164	0.0183924	2	-0.00124882	1.7531e-06
2	1	0	0	0	35.3331	-0.0915517	-0.0923215	0.0181048	2	-0.00124826	1.67146e-06
2	1	0	0	0	35.3631	-0.0885528	-0.0893268	0.0177507	2	-0.00124771	1.58561e-06
2	1	0	0	0	35.3931	-0.0855538	-0.0863103	0.0174976	2	-0.00124717	1.51022e-06
2	1	0	0	0	35.4231	-0.0825549	-0.0833129	0.0171576	2	-0.00124665	1.42945e-06
2	1	0	1	0	35.4529	-0.079556	-0.0803228	0.0169396	2	-0.00124613	1.36064e-06
2	1	0	1	0	35.4829	-0.076557	-0.0773176	0.0166152	2	-0.00124562	1.28465e-06
2	1	0	1	0	35.5129	-0.0735581	-0.0743284	0.0163726	2	-0.00124512	1.21695e-06
2	1	0	1	0	35.5429	-0.0705592	-0.0713414	0.0160692	2	-0.00124462	1.1464e-06
2	1	0	1	0	35.5729	-0.0675603	-0.0683299	0.0158249	2	-0.00124413	1.08131e-06
2	1	0	1	0	35.6029	-0.0645613	-0.0653283	0.0155544	2	-0.00124365	1.01614e-06
2	1	0	1	0	35.6329	-0.0615624	-0.0623243	0.0153371	2	-0.00124318	9.55872e-07
2	1	0	1	0	35.6629	-0.0585635	-0.0593256	0.015125	2	-0.00124272	8.97299e-07
2	1	0	1	0	35.6929	-0.0555645	-0.0563417	0.0149057	2	-0.00124226	8.3981e-07
2	1	0	1	0	35.7229	-0.0525656	-0.0533178	0.0147269	2	-0.0012418	7.85204e-07
2	1	0	1	0	35.7529	-0.0495667	-0.0503415	0.0145036	2	-0.00124136	7.30135e-07
2	1	0	1	0	35.7829	-0.0465677	-0.047345	0.0143483	2	-0.00124092	6.79321e-07
2	1	0	1	0	35.8129	-0.0435688	-0.0443448	0.0142115	2	-0.00124048	6.30203e-07
2	1	0	1	0	35.8429	-0.0405699	-0.041345	0.0140331	2	-0.00124005	5.802e-07
2	1	0	1	0	35.8729	-0.037571	-0.0383622	0.0138733	2	-0.00123962	5.32209e-07
2	1	0	1	0	35.9029	-0.034572	-0.0353349	0.013762	2	-0.0012392	4.8628e-07
2	1	0	1	0	35.9329	-0.0315731	-0.0323362	0.0135746	2	-0.00123878	4.38951e-07
2	1	0	1	0	35.9629	-0.0285742	-0.0293517	0.0134609	2	-0.00123837	3.95101e-07
2	1	0	1	0	35.9918	-0.0256782	-0.0264545	0.0134035	2	-0.00123797	3.54584e-07