File: TAP_Report/Data/Res_growth/mg5_1_2.mpt
EC-Lab ASCII FILE
Nb header lines : 54

Cyclic Voltammetry

Run on channel : 1 (SN 0696)
User :
Electrode connection : standard
Ewe ctrl range : min = -2.50 V, max = 2.50 V
Ewe,I filtering : 50 kHz
Channel : Grounded
Acquisition started on : 01/18/2017 14:36:20
Saved on :
	File : mg5_1.mpr
	Directory : H:\EC-Lab\Data\Resazurin Bulk 18-1-17\
	Host : 144.32.136.43
Device : SP-300 (SN 0182)
Address : USB
EC-Lab for windows v10.44 (software)
Internet server v10.44 (firmware)
Command interpretor v10.44 (firmware)
Electrode material :
Initial state :
Electrolyte :
Comments :
Cable : standard
Reference electrode : SCE Saturated Calomel Electrode (0.241 V)
Electrode surface area : 0.001 cm²
Characteristic mass : 0.001 g
Equivalent Weight : 0.000 g/eq.
Density : 0.000 g/cm3
Ei (V)              0.000
vs.                 Eoc
dE/dt               100.000
dE/dt unit          mV/s
E1 (V)              0.000
vs.                 Ref
Step percent        50
N                   10
E range min (V)     -2.500
E range max (V)     2.500
I Range             Auto
I Range min         Unset
I Range max         Unset
I Range init        Unset
Bandwidth           8
E2 (V)              -0.900
vs.                 Ref
nc cycles           2
Reverse Scan        1
Ef (V)              0.000
vs.                 Eoc

mode	ox/red	error	control changes	counter inc.	time/s	control/V	Ewe/V	<I>/mA	cycle number	(Q-Qo)/C	P/W
2	1	0	0	1	17.9974	-0.0565142	-0.0572924	0.01717	2	-0.000627687	9.83711e-07
2	1	0	1	1	18.0229	-0.0539651	-0.0547261	0.0168438	2	-0.000627248	9.21798e-07
2	1	0	1	1	18.0529	-0.0509662	-0.0517581	0.0165478	2	-0.000626738	8.56484e-07
2	1	0	1	1	18.0829	-0.0479672	-0.0487427	0.0162413	2	-0.000626238	7.91646e-07
2	1	0	1	1	18.1129	-0.0449683	-0.0457414	0.0160093	2	-0.000625745	7.3229e-07
2	1	0	1	1	18.1429	-0.0419694	-0.0427582	0.0157784	2	-0.00062526	6.74654e-07
2	1	0	1	1	18.1729	-0.0389705	-0.039737	0.0155616	2	-0.000624782	6.18373e-07
2	1	0	1	1	18.2029	-0.0359715	-0.0367468	0.0153298	2	-0.00062431	5.63322e-07
2	1	0	1	1	18.2329	-0.0329726	-0.0337328	0.0151386	2	-0.000623845	5.10667e-07
2	1	0	1	1	18.2629	-0.0299737	-0.0307363	0.0149338	2	-0.000623386	4.5901e-07
2	1	0	1	1	18.2929	-0.0269747	-0.0277469	0.0147526	2	-0.000622933	4.09339e-07
2	1	0	1	1	18.3229	-0.0239758	-0.0247719	0.014551	2	-0.000622484	3.60456e-07
2	1	0	1	1	18.3529	-0.0209769	-0.0217533	0.0144089	2	-0.000622041	3.13441e-07
2	1	0	1	1	18.3829	-0.017978	-0.0187614	0.0142711	2	-0.000621603	2.67746e-07
2	1	0	1	1	18.4129	-0.014979	-0.0157555	0.0141632	2	-0.000621168	2.23148e-07
2	1	0	1	1	18.4429	-0.0119801	-0.0127794	0.0140054	2	-0.000620737	1.78981e-07
2	1	0	1	1	18.4729	-0.00898118	-0.009743	0.0139361	2	-0.00062031	1.35779e-07
2	1	0	1	1	18.5029	-0.00598225	-0.00676062	0.0137485	2	-0.000619886	9.29484e-08
2	1	0	1	1	18.5329	-0.00298333	-0.00375811	0.0136998	2	-0.000619466	5.14854e-08
2	1	0	0	1	18.5597	-0.00028429	-0.00105891	0.0136229	2	-0.000619092	1.44254e-08
2	0	0	0	1	18.5683	-0.000484219	-0.00130521	0.0116071	2	-0.000618985	1.51497e-08
2	0	0	1	1	18.5981	-0.00348315	-0.00431006	0.00979547	2	-0.00061868	4.22191e-08
2	0	0	1	1	18.6281	-0.00648208	-0.00729096	0.00879917	2	-0.000618412	6.41544e-08
2	0	0	1	1	18.6581	-0.009481	-0.0102964	0.00803265	2	-0.000618169	8.27078e-08
2	0	0	1	1	18.6881	-0.0124799	-0.0133021	0.00735856	2	-0.000617947	9.78845e-08
2	0	0	1	1	18.7181	-0.0154789	-0.0163093	0.00680476	2	-0.000617743	1.10981e-07
2	0	0	1	1	18.7481	-0.0184778	-0.0192955	0.00631622	2	-0.000617554	1.21875e-07
2	0	0	1	1	18.7781	-0.0214767	-0.0222985	0.0059123	2	-0.00061738	1.31835e-07
2	0	0	1	1	18.8081	-0.0244756	-0.0252944	0.00545401	2	-0.000617218	1.37956e-07
2	0	0	1	1	18.8381	-0.0274746	-0.0282899	0.00509632	2	-0.000617068	1.44175e-07
2	0	0	1	1	18.8681	-0.0304735	-0.0312986	0.00474625	2	-0.000616928	1.48551e-07
2	0	0	0	1	18.9291	-0.0365713	-0.0374069	0.00382755	2	-0.000616667	1.43177e-07
2	0	0	0	1	18.9591	-0.0395703	-0.0404068	0.00355487	2	-0.000616557	1.43641e-07
2	0	0	0	1	18.9891	-0.0425692	-0.0434098	0.00327806	2	-0.000616454	1.423e-07
2	0	0	0	1	19.0191	-0.0455681	-0.0463903	0.00305264	2	-0.00061636	1.41613e-07
2	0	0	0	1	19.0491	-0.048567	-0.0493803	0.00281147	2	-0.000616272	1.38831e-07
2	0	0	0	1	19.0791	-0.051566	-0.0524031	0.00258062	2	-0.000616192	1.35233e-07
2	0	0	0	1	19.1091	-0.0545649	-0.0554029	0.00237119	2	-0.000616118	1.31371e-07
2	0	0	1	1	19.1389	-0.0575638	-0.0583789	0.00215123	2	-0.000616051	1.25586e-07
2	0	0	1	1	19.1689	-0.0605627	-0.0614084	0.00196039	2	-0.000615989	1.20384e-07
2	0	0	1	1	19.1989	-0.0635617	-0.064399	0.00175795	2	-0.000615933	1.1321e-07
2	0	0	1	1	19.2289	-0.0665606	-0.0673992	0.00159008	2	-0.000615883	1.0717e-07
2	0	0	1	1	19.2589	-0.0695595	-0.0703854	0.00142224	2	-0.000615838	1.00105e-07
2	0	0	1	1	19.2889	-0.0725585	-0.0733968	0.00125039	2	-0.000615799	9.17743e-08
2	0	0	1	1	19.3189	-0.0755574	-0.076379	0.00109865	2	-0.000615764	8.39141e-08
2	0	0	1	1	19.3489	-0.0785563	-0.0793887	0.000917132	2	-0.000615734	7.281e-08
2	0	0	1	1	19.3789	-0.0815553	-0.0823791	0.000790032	2	-0.000615708	6.50821e-08
2	0	0	1	1	19.4089	-0.0845542	-0.0853834	0.000615466	2	-0.000615688	5.25505e-08
2	0	0	1	1	19.4389	-0.0875531	-0.0883778	0.000461089	2	-0.000615672	4.075e-08
2	0	0	1	1	19.4689	-0.090552	-0.0913842	0.000332312	2	-0.00061566	3.0368e-08
2	0	0	1	1	19.4989	-0.093551	-0.0943903	0.000191699	2	-0.000615653	1.80945e-08
2	0	0	1	1	19.5289	-0.0965499	-0.0973818	3.75292e-05	2	-0.000615649	3.65466e-09
2	0	0	1	1	19.5589	-0.0995488	-0.100381	-9.59542e-05	2	-0.00061565	9.63197e-09
2	0	0	1	1	19.5889	-0.102548	-0.103395	-0.000225414	2	-0.000615656	2.33068e-08
2	0	0	1	1	19.6189	-0.105547	-0.10638	-0.000361842	2	-0.000615665	3.84929e-08
2	0	0	1	1	19.6489	-0.108546	-0.109386	-0.000496104	2	-0.000615678	5.4267e-08
2	0	0	1	1	19.6789	-0.111545	-0.112374	-0.000644558	2	-0.000615696	7.24315e-08
2	0	0	0	1	19.7087	-0.114543	-0.115396	-0.000788416	2	-0.000615718	9.09801e-08
2	0	0	0	1	19.7387	-0.117542	-0.118384	-0.000918126	2	-0.000615743	1.08692e-07
2	0	0	0	1	19.7687	-0.120541	-0.121385	-0.00104846	2	-0.000615773	1.27267e-07
2	0	0	0	1	19.7987	-0.12354	-0.124387	-0.00120029	2	-0.000615807	1.49301e-07
2	0	0	0	1	19.8287	-0.126539	-0.127386	-0.00132427	2	-0.000615845	1.68694e-07
2	0	0	0	1	19.8587	-0.129538	-0.13038	-0.0014714	2	-0.000615887	1.91841e-07
2	0	0	0	1	19.8887	-0.132537	-0.133382	-0.00161263	2	-0.000615934	2.15096e-07
2	0	0	0	1	19.9187	-0.135536	-0.136369	-0.0017599	2	-0.000615985	2.39996e-07
2	0	0	0	1	19.9487	-0.138535	-0.139377	-0.00191508	2	-0.00061604	2.66917e-07
2	0	0	0	1	19.9787	-0.141534	-0.142368	-0.0020487	2	-0.0006161	2.9167e-07
2	0	0	0	1	20.0087	-0.144533	-0.145382	-0.00221363	2	-0.000616165	3.21822e-07
2	0	0	0	1	20.0387	-0.147532	-0.148363	-0.00237097	2	-0.000616234	3.51764e-07
2	0	0	0	1	20.0687	-0.150531	-0.151378	-0.00253222	2	-0.000616308	3.83323e-07
2	0	0	0	1	20.0987	-0.15353	-0.154395	-0.00270916	2	-0.000616387	4.1828e-07
2	0	0	0	1	20.1287	-0.156528	-0.157386	-0.00289389	2	-0.000616471	4.55456e-07
2	0	0	0	1	20.1587	-0.159527	-0.160371	-0.00306325	2	-0.00061656	4.91257e-07
2	0	0	0	1	20.1887	-0.162526	-0.16338	-0.0032442	2	-0.000616655	5.30037e-07
2	0	0	0	1	20.2187	-0.165525	-0.166371	-0.00344993	2	-0.000616756	5.73969e-07
2	0	0	0	1	20.2486	-0.168517	-0.169351	-0.00364921	2	-0.000616862	6.17999e-07
2	0	0	1	1	20.2785	-0.171523	-0.172356	-0.00383686	2	-0.000616975	6.61305e-07
2	0	0	1	1	20.3085	-0.174522	-0.175375	-0.00407195	2	-0.000617094	7.14116e-07
2	0	0	1	1	20.3385	-0.177521	-0.178368	-0.00427692	2	-0.000617219	7.62867e-07
2	0	0	1	1	20.3685	-0.18052	-0.181367	-0.00452484	2	-0.000617351	8.20659e-07
2	0	0	1	1	20.3985	-0.183519	-0.184361	-0.00475744	2	-0.00061749	8.77088e-07
2	0	0	1	1	20.4285	-0.186518	-0.187349	-0.00498714	2	-0.000617637	9.34334e-07
2	0	0	1	1	20.4585	-0.189517	-0.190357	-0.0052522	2	-0.000617791	9.99791e-07
2	0	0	1	1	20.4885	-0.192516	-0.193361	-0.00551435	2	-0.000617953	1.06626e-06
2	0	0	1	1	20.5185	-0.195515	-0.196381	-0.00578628	2	-0.000618123	1.13631e-06
2	0	0	1	1	20.5485	-0.198513	-0.199358	-0.00607577	2	-0.000618301	1.21126e-06
2	0	0	1	1	20.5785	-0.201512	-0.202363	-0.00637695	2	-0.000618489	1.29046e-06
2	0	0	1	1	20.6085	-0.204511	-0.205383	-0.00670385	2	-0.000618685	1.37685e-06
2	0	0	1	1	20.6385	-0.20751	-0.208373	-0.00701061	2	-0.000618891	1.46082e-06
2	0	0	1	1	20.6685	-0.210509	-0.21137	-0.00733203	2	-0.000619107	1.54977e-06
2	0	0	1	1	20.6985	-0.213508	-0.214373	-0.00767265	2	-0.000619332	1.64481e-06
2	0	0	1	1	20.7285	-0.216507	-0.217388	-0.00802811	2	-0.000619568	1.74521e-06
2	0	0	1	1	20.7585	-0.219506	-0.220383	-0.00838912	2	-0.000619814	1.84882e-06
2	0	0	1	1	20.7885	-0.222505	-0.22339	-0.00873436	2	-0.000620071	1.95117e-06
2	0	0	0	1	20.8183	-0.225504	-0.226386	-0.00913767	2	-0.000620338	2.06864e-06
2	0	0	0	1	20.8483	-0.228503	-0.229388	-0.00951389	2	-0.000620617	2.18237e-06
2	0	0	0	1	20.8783	-0.231502	-0.232389	-0.00988517	2	-0.000620908	2.2972e-06
2	0	0	0	1	20.9238	-0.23605	-0.236927	-0.010376	2	-0.000621372	2.45835e-06
2	0	0	1	1	20.9693	-0.240598	-0.241447	-0.0108102	2	-0.000621858	2.61009e-06
2	0	0	1	1	20.9993	-0.243597	-0.244453	-0.0112332	2	-0.000622196	2.74598e-06
2	0	0	1	1	21.0293	-0.246596	-0.247444	-0.01159	2	-0.000622546	2.86787e-06
2	0	0	1	1	21.0593	-0.249595	-0.250453	-0.0119768	2	-0.000622908	2.99963e-06
2	0	0	1	1	21.0893	-0.252594	-0.253443	-0.0123607	2	-0.000623282	3.13272e-06
2	0	0	1	1	21.1193	-0.255593	-0.256443	-0.0128062	2	-0.000623668	3.28407e-06
2	0	0	1	1	21.1493	-0.258592	-0.259446	-0.0132225	2	-0.000624066	3.43053e-06
2	0	0	1	1	21.1793	-0.261591	-0.262441	-0.0135928	2	-0.000624476	3.5673e-06
2	0	0	1	1	21.2093	-0.26459	-0.265442	-0.0139928	2	-0.000624898	3.71427e-06
2	0	0	1	1	21.2393	-0.267589	-0.268443	-0.0143594	2	-0.000625332	3.85467e-06
2	0	0	1	1	21.2693	-0.270588	-0.271457	-0.0147943	2	-0.000625777	4.01601e-06
2	0	0	1	1	21.2993	-0.273587	-0.274445	-0.0151428	2	-0.000626234	4.15586e-06
2	0	0	1	1	21.3293	-0.276586	-0.277453	-0.015562	2	-0.000626702	4.31771e-06
2	0	0	1	1	21.3593	-0.279585	-0.28044	-0.0159068	2	-0.000627181	4.46088e-06
2	0	0	0	1	21.3891	-0.282583	-0.283436	-0.0162646	2	-0.000627669	4.60998e-06
2	0	0	0	1	21.4191	-0.285582	-0.286438	-0.0166297	2	-0.00062817	4.76338e-06
2	0	0	0	1	21.4491	-0.288581	-0.28942	-0.0169804	2	-0.000628682	4.91446e-06
2	0	0	0	1	21.4791	-0.29158	-0.292427	-0.0173223	2	-0.000629205	5.06552e-06
2	0	0	0	1	21.5091	-0.294579	-0.29543	-0.0177171	2	-0.000629739	5.23417e-06
2	0	0	0	1	21.5391	-0.297578	-0.298435	-0.0180207	2	-0.000630283	5.378e-06
2	0	0	0	1	21.5691	-0.300577	-0.301419	-0.0183695	2	-0.000630837	5.53691e-06
2	0	0	0	1	21.5991	-0.303576	-0.304428	-0.0187284	2	-0.000631402	5.70145e-06
2	0	0	0	1	21.6291	-0.306575	-0.307432	-0.0190529	2	-0.000631976	5.85749e-06
2	0	0	0	1	21.6591	-0.309574	-0.310437	-0.0193663	2	-0.000632561	6.01202e-06
2	0	0	0	1	21.6891	-0.312573	-0.31343	-0.0197061	2	-0.000633155	6.17649e-06
2	0	0	0	1	21.7191	-0.315572	-0.31643	-0.0200415	2	-0.000633759	6.34173e-06
2	0	0	0	1	21.7491	-0.318571	-0.319426	-0.0203439	2	-0.000634373	6.49839e-06
2	0	0	0	1	21.7791	-0.321569	-0.322422	-0.0206606	2	-0.000634996	6.66143e-06
2	0	0	0	1	21.8091	-0.324568	-0.325413	-0.0209687	2	-0.000635629	6.82346e-06
2	0	0	0	1	21.8391	-0.327567	-0.32842	-0.0212917	2	-0.000636271	6.99261e-06
2	0	0	0	1	21.8691	-0.330566	-0.331422	-0.0216095	2	-0.000636922	7.16188e-06
2	0	0	0	1	21.8991	-0.333565	-0.334406	-0.0219161	2	-0.000637583	7.32887e-06
2	0	0	0	1	21.929	-0.33656	-0.337396	-0.0222207	2	-0.000638251	7.49718e-06
2	0	0	1	1	21.9589	-0.339563	-0.340396	-0.0225259	2	-0.000638929	7.66774e-06
2	0	0	1	1	21.9889	-0.342562	-0.343418	-0.0228552	2	-0.000639618	7.84888e-06
2	0	0	1	1	22.0189	-0.345561	-0.34642	-0.0231823	2	-0.000640317	8.03081e-06
2	0	0	1	1	22.0489	-0.34856	-0.34941	-0.023471	2	-0.000641025	8.20099e-06
2	0	0	1	1	22.0789	-0.351559	-0.3524	-0.0238081	2	-0.000641742	8.38998e-06
2	0	0	1	1	22.1089	-0.354558	-0.355382	-0.024136	2	-0.000642469	8.5775e-06
2	0	0	1	1	22.1389	-0.357557	-0.358411	-0.0244598	2	-0.000643206	8.76665e-06
2	0	0	1	1	22.1689	-0.360556	-0.361405	-0.0247528	2	-0.000643952	8.94578e-06
2	0	0	1	1	22.1989	-0.363554	-0.3644	-0.0250594	2	-0.000644707	9.13167e-06
2	0	0	1	1	22.2289	-0.366553	-0.367402	-0.0254196	2	-0.000645472	9.33923e-06
2	0	0	1	1	22.2589	-0.369552	-0.370423	-0.0257238	2	-0.000646247	9.52869e-06
2	0	0	1	1	22.2889	-0.372551	-0.373404	-0.026073	2	-0.000647032	9.73574e-06
2	0	0	1	1	22.3189	-0.37555	-0.376408	-0.0263705	2	-0.000647826	9.92607e-06
2	0	0	1	1	22.3489	-0.378549	-0.379393	-0.0266721	2	-0.000648629	1.01192e-05
2	0	0	1	1	22.3789	-0.381548	-0.382391	-0.0270216	2	-0.000649443	1.03328e-05
2	0	0	1	1	22.4089	-0.384547	-0.385383	-0.0272683	2	-0.000650265	1.05087e-05
2	0	0	1	1	22.4389	-0.387546	-0.388392	-0.0276425	2	-0.000651098	1.07361e-05
2	0	0	1	1	22.4689	-0.390545	-0.391392	-0.0279633	2	-0.000651939	1.09446e-05
2	0	0	0	1	22.4987	-0.393544	-0.394402	-0.0282407	2	-0.000652785	1.11382e-05
2	0	0	0	1	22.5287	-0.396543	-0.397403	-0.0285938	2	-0.000653645	1.13633e-05
2	0	0	0	1	22.5587	-0.399542	-0.40039	-0.0288666	2	-0.000654515	1.15579e-05
2	0	0	0	1	22.5887	-0.402541	-0.403365	-0.0291623	2	-0.000655394	1.17631e-05
2	0	0	0	1	22.6187	-0.405539	-0.406382	-0.0294658	2	-0.000656281	1.19744e-05
2	0	0	0	1	22.6487	-0.408538	-0.409416	-0.029797	2	-0.000657178	1.21994e-05
2	0	0	0	1	22.6787	-0.411537	-0.412402	-0.0300647	2	-0.000658083	1.23987e-05
2	0	0	0	1	22.7087	-0.414536	-0.415411	-0.0302803	2	-0.000658996	1.25788e-05
2	0	0	0	1	22.7387	-0.417535	-0.418395	-0.0305672	2	-0.000659918	1.27891e-05
2	0	0	0	1	22.7687	-0.420534	-0.421411	-0.0308715	2	-0.000660847	1.30096e-05
2	0	0	0	1	22.7987	-0.423533	-0.42441	-0.0310752	2	-0.000661785	1.31886e-05
2	0	0	0	1	22.8287	-0.426532	-0.427406	-0.0313761	2	-0.00066273	1.34103e-05
2	0	0	0	1	22.8587	-0.429531	-0.43039	-0.0316055	2	-0.000663683	1.36027e-05
2	0	0	0	1	22.8887	-0.43253	-0.433386	-0.0318299	2	-0.000664642	1.37947e-05
2	0	0	0	1	22.9187	-0.435529	-0.436377	-0.0320644	2	-0.000665609	1.39922e-05
2	0	0	0	1	22.9487	-0.438528	-0.439384	-0.0322824	2	-0.000666582	1.41844e-05
2	0	0	0	1	22.9787	-0.441527	-0.442389	-0.0325064	2	-0.000667562	1.43805e-05
2	0	0	0	1	23.0087	-0.444526	-0.445376	-0.0326849	2	-0.000668549	1.45571e-05
2	0	0	0	1	23.0387	-0.447524	-0.448383	-0.0329403	2	-0.000669541	1.47699e-05
2	0	0	1	1	23.0685	-0.450523	-0.451377	-0.0330989	2	-0.000670534	1.49401e-05
2	0	0	1	1	23.0985	-0.453522	-0.454378	-0.0333015	2	-0.000671538	1.51315e-05
2	0	0	1	1	23.1285	-0.456521	-0.457387	-0.0334925	2	-0.000672548	1.5319e-05
2	0	0	1	1	23.1585	-0.45952	-0.460373	-0.0336552	2	-0.000673564	1.54939e-05
2	0	0	1	1	23.1885	-0.462519	-0.463385	-0.0338118	2	-0.000674584	1.56679e-05
2	0	0	1	1	23.2185	-0.465518	-0.466368	-0.0339785	2	-0.00067561	1.58465e-05
2	0	0	1	1	23.2485	-0.468517	-0.469377	-0.0341824	2	-0.00067664	1.60444e-05
2	0	0	1	1	23.2785	-0.471516	-0.472357	-0.0342994	2	-0.000677676	1.62015e-05
2	0	0	1	1	23.3085	-0.474515	-0.475389	-0.0344847	2	-0.000678715	1.63937e-05
2	0	0	1	1	23.3385	-0.477514	-0.478364	-0.0346095	2	-0.00067976	1.6556e-05
2	0	0	1	1	23.3685	-0.480513	-0.481373	-0.0347565	2	-0.000680809	1.67308e-05
2	0	0	1	1	23.3985	-0.483512	-0.484364	-0.0349123	2	-0.000681862	1.69103e-05
2	0	0	1	1	23.4285	-0.486511	-0.487381	-0.0350267	2	-0.000682919	1.70714e-05
2	0	0	1	1	23.4585	-0.489509	-0.490364	-0.0351829	2	-0.00068398	1.72524e-05
2	0	0	1	1	23.4885	-0.492508	-0.493349	-0.0352756	2	-0.000685045	1.74032e-05
2	0	0	1	1	23.5185	-0.495507	-0.496357	-0.0354373	2	-0.000686114	1.75895e-05
2	0	0	1	1	23.5485	-0.498506	-0.499362	-0.0355604	2	-0.000687186	1.77575e-05
2	0	0	1	1	23.5785	-0.501505	-0.50236	-0.0356703	2	-0.000688263	1.79193e-05
2	0	0	1	1	23.6084	-0.504502	-0.505358	-0.0358355	2	-0.00068934	1.81097e-05
2	0	0	0	1	23.6383	-0.507503	-0.50837	-0.0359626	2	-0.00069042	1.82823e-05
2	0	0	0	1	23.6683	-0.510502	-0.511363	-0.0360543	2	-0.000691508	1.84369e-05
2	0	0	0	1	23.6983	-0.513501	-0.514371	-0.0361686	2	-0.000692599	1.86041e-05
2	0	0	0	1	23.7283	-0.5165	-0.517364	-0.0362936	2	-0.000693693	1.8777e-05
2	0	0	0	1	23.7583	-0.519499	-0.520368	-0.0363955	2	-0.000694791	1.89391e-05
2	0	0	0	1	23.7883	-0.522498	-0.523373	-0.0364987	2	-0.000695893	1.91024e-05
2	0	0	0	1	23.8183	-0.525497	-0.526371	-0.0365744	2	-0.000696997	1.92517e-05
2	0	0	0	1	23.8483	-0.528496	-0.52936	-0.0367436	2	-0.000698106	1.94506e-05
2	0	0	0	1	23.8783	-0.531494	-0.532344	-0.0368268	2	-0.000699217	1.96045e-05
2	0	0	0	1	23.9083	-0.534493	-0.535358	-0.0369073	2	-0.000700332	1.97586e-05
2	0	0	0	1	23.9383	-0.537492	-0.538353	-0.0370452	2	-0.00070145	1.99434e-05
2	0	0	0	1	23.9683	-0.540491	-0.541352	-0.0371684	2	-0.000702571	2.01211e-05
2	0	0	0	1	23.9983	-0.54349	-0.544355	-0.0372931	2	-0.000703696	2.03007e-05
2	0	0	0	1	24.0283	-0.546489	-0.547353	-0.037391	2	-0.000704824	2.04661e-05
2	0	0	0	1	24.0583	-0.549488	-0.550361	-0.0375163	2	-0.000705955	2.06475e-05
2	0	0	0	1	24.0883	-0.552487	-0.55335	-0.0376126	2	-0.00070709	2.08129e-05
2	0	0	0	1	24.1183	-0.555486	-0.556351	-0.0377112	2	-0.000708228	2.09807e-05
2	0	0	0	1	24.1483	-0.558485	-0.559341	-0.037878	2	-0.00070937	2.11867e-05
2	0	0	1	1	24.1781	-0.561484	-0.562344	-0.0379485	2	-0.000710507	2.13401e-05
2	0	0	1	1	24.2081	-0.564483	-0.565359	-0.0380774	2	-0.000711656	2.15274e-05
2	0	0	1	1	24.2381	-0.567482	-0.568348	-0.0381802	2	-0.000712808	2.16996e-05
2	0	0	1	1	24.2681	-0.570481	-0.571326	-0.0383119	2	-0.000713964	2.18886e-05
2	0	0	1	1	24.2981	-0.57348	-0.574341	-0.0384426	2	-0.000715123	2.20792e-05
2	0	0	1	1	24.3281	-0.576478	-0.577348	-0.0385418	2	-0.000716286	2.2252e-05
2	0	0	1	1	24.3581	-0.579477	-0.580348	-0.0387168	2	-0.000717453	2.24692e-05
2	0	0	1	1	24.3881	-0.582476	-0.583337	-0.038797	2	-0.000718623	2.26317e-05
2	0	0	1	1	24.4181	-0.585475	-0.586354	-0.0389539	2	-0.000719797	2.28408e-05
2	0	0	1	1	24.4481	-0.588474	-0.589331	-0.0390561	2	-0.000720975	2.3017e-05
2	0	0	1	1	24.4781	-0.591473	-0.592334	-0.0392154	2	-0.000722157	2.32286e-05
2	0	0	1	1	24.5081	-0.594472	-0.595316	-0.0393677	2	-0.000723344	2.34362e-05
2	0	0	1	1	24.5381	-0.597471	-0.598316	-0.0395046	2	-0.000724534	2.36362e-05
2	0	0	1	1	24.5681	-0.60047	-0.601323	-0.0396263	2	-0.000725729	2.38282e-05
2	0	0	1	1	24.5981	-0.603469	-0.604336	-0.0397754	2	-0.000726928	2.40377e-05
2	0	0	1	1	24.6281	-0.606468	-0.607318	-0.0399189	2	-0.000728132	2.42435e-05
2	0	0	1	1	24.6581	-0.609467	-0.610303	-0.040103	2	-0.00072934	2.4475e-05
2	0	0	1	1	24.6881	-0.612466	-0.613333	-0.0402479	2	-0.000730554	2.46853e-05
2	0	0	1	1	24.7181	-0.615464	-0.616324	-0.0404394	2	-0.000731772	2.49238e-05
2	0	0	0	1	24.7479	-0.618463	-0.619334	-0.0406215	2	-0.000732988	2.51583e-05
2	0	0	0	1	24.7779	-0.621462	-0.62233	-0.0407791	2	-0.000734216	2.5378e-05
2	0	0	0	1	24.8079	-0.624461	-0.625335	-0.0409674	2	-0.000735451	2.56184e-05
2	0	0	0	1	24.8379	-0.62746	-0.628323	-0.0411598	2	-0.000736691	2.58617e-05
2	0	0	0	1	24.8679	-0.630459	-0.63132	-0.041296	2	-0.000737936	2.6071e-05
2	0	0	0	1	24.8979	-0.633458	-0.634343	-0.0415694	2	-0.000739188	2.63693e-05
2	0	0	0	1	24.9279	-0.636457	-0.63733	-0.0417648	2	-0.000740445	2.6618e-05
2	0	0	0	1	24.9579	-0.639456	-0.640317	-0.0419681	2	-0.000741709	2.68729e-05
2	0	0	0	1	24.9879	-0.642455	-0.643336	-0.0422203	2	-0.00074298	2.71618e-05
2	0	0	0	1	25.0179	-0.645454	-0.646312	-0.0424172	2	-0.000744257	2.74147e-05
2	0	0	0	1	25.0479	-0.648453	-0.649318	-0.0426601	2	-0.000745542	2.76999e-05
2	0	0	0	1	25.0779	-0.651452	-0.652318	-0.0429341	2	-0.000746833	2.80067e-05
2	0	0	0	1	25.1079	-0.654451	-0.655309	-0.0431924	2	-0.000748133	2.83044e-05
2	0	0	0	1	25.1379	-0.657449	-0.658306	-0.04349	2	-0.000749441	2.86297e-05
2	0	0	0	1	25.1679	-0.660448	-0.661319	-0.0437435	2	-0.000750757	2.89284e-05
2	0	0	0	1	25.1979	-0.663447	-0.66431	-0.0440536	2	-0.000752081	2.92652e-05
2	0	0	0	1	25.2279	-0.666446	-0.667318	-0.0442922	2	-0.000753415	2.9557e-05
2	0	0	0	1	25.2579	-0.669445	-0.670309	-0.0446835	2	-0.000754757	2.99517e-05
2	0	0	0	1	25.2878	-0.672444	-0.673316	-0.0450327	2	-0.000756105	3.03213e-05
2	0	0	1	1	25.3177	-0.675443	-0.676316	-0.0453154	2	-0.000757464	3.06476e-05
2	0	0	1	1	25.3477	-0.678442	-0.679326	-0.0456817	2	-0.000758837	3.10328e-05
2	0	0	1	1	25.3777	-0.681441	-0.682316	-0.0460669	2	-0.000760221	3.14322e-05
2	0	0	1	1	25.4077	-0.68444	-0.685315	-0.0464254	2	-0.000761615	3.1816e-05
2	0	0	1	1	25.4377	-0.687439	-0.688317	-0.0467872	2	-0.000763022	3.22044e-05
2	0	0	1	1	25.4677	-0.690438	-0.691306	-0.0472565	2	-0.000764441	3.26687e-05
2	0	0	1	1	25.4977	-0.693437	-0.6943	-0.047662	2	-0.000765872	3.30917e-05
2	0	0	1	1	25.5277	-0.696436	-0.69728	-0.048055	2	-0.000767317	3.35078e-05
2	0	0	1	1	25.5577	-0.699434	-0.700289	-0.048549	2	-0.000768775	3.39984e-05
2	0	0	1	1	25.5877	-0.702433	-0.703313	-0.0490513	2	-0.000770247	3.44984e-05
2	0	0	1	1	25.6177	-0.705432	-0.706291	-0.0495476	2	-0.000771734	3.4995e-05
2	0	0	1	1	25.6477	-0.708431	-0.709301	-0.0500795	2	-0.000773237	3.55214e-05
2	0	0	1	1	25.6777	-0.71143	-0.712302	-0.0506427	2	-0.000774755	3.60729e-05
2	0	0	1	1	25.7077	-0.714429	-0.715297	-0.0512385	2	-0.00077629	3.66508e-05
2	0	0	1	1	25.7377	-0.717428	-0.718308	-0.051774	2	-0.000777843	3.71897e-05
2	0	0	1	1	25.7677	-0.720427	-0.721295	-0.0523462	2	-0.000779413	3.7757e-05
2	0	0	1	1	25.7977	-0.723426	-0.724282	-0.0529925	2	-0.000781002	3.83815e-05
2	0	0	1	1	25.8277	-0.726425	-0.727295	-0.0536878	2	-0.000782611	3.90469e-05
2	0	0	0	1	25.8575	-0.729424	-0.730298	-0.0544055	2	-0.000784229	3.97322e-05
2	0	0	0	1	25.8875	-0.732423	-0.733291	-0.0550868	2	-0.000785879	4.03947e-05
2	0	0	0	1	25.9175	-0.735422	-0.736295	-0.0558625	2	-0.000787551	4.11313e-05
2	0	0	0	1	25.9475	-0.738421	-0.739303	-0.0566346	2	-0.000789246	4.18702e-05
2	0	0	0	1	25.9775	-0.741419	-0.742298	-0.0574083	2	-0.000790965	4.26141e-05
2	0	0	0	1	26.0075	-0.744418	-0.745293	-0.0582824	2	-0.000792708	4.34375e-05
2	0	0	0	1	26.0375	-0.747417	-0.748295	-0.0591697	2	-0.000794478	4.42764e-05
2	0	0	0	1	26.0675	-0.750416	-0.751287	-0.0601079	2	-0.000796275	4.51583e-05
2	0	0	0	1	26.0975	-0.753415	-0.754312	-0.0610961	2	-0.0007981	4.60855e-05
2	0	0	0	1	26.1275	-0.756414	-0.757306	-0.0620808	2	-0.000799955	4.70141e-05
2	0	0	0	1	26.1575	-0.759413	-0.760292	-0.0631547	2	-0.000801841	4.80161e-05
2	0	0	0	1	26.1875	-0.762412	-0.763285	-0.064188	2	-0.000803758	4.89937e-05
2	0	0	0	1	26.2175	-0.765411	-0.766282	-0.0653311	2	-0.000805709	5.0062e-05
2	0	0	0	1	26.2475	-0.76841	-0.769269	-0.0665205	2	-0.000807695	5.11722e-05
2	0	0	0	1	26.2775	-0.771409	-0.772259	-0.0677032	2	-0.000809716	5.22845e-05
2	0	0	0	1	26.3075	-0.774408	-0.775263	-0.0690339	2	-0.000811775	5.35194e-05
2	0	0	0	1	26.3375	-0.777407	-0.778281	-0.0702998	2	-0.000813873	5.4713e-05
2	0	0	0	1	26.3675	-0.780405	-0.78129	-0.0717488	2	-0.000816012	5.60566e-05
2	0	0	0	1	26.3975	-0.783404	-0.784285	-0.0731581	2	-0.000818193	5.73768e-05
2	0	0	1	1	26.4273	-0.786403	-0.787268	-0.0746219	2	-0.000820403	5.87475e-05
2	0	0	1	1	26.4573	-0.789402	-0.790283	-0.0761421	2	-0.000822673	6.01739e-05
2	0	0	1	1	26.4873	-0.792401	-0.793288	-0.0777663	2	-0.00082499	6.16911e-05
2	0	0	1	1	26.5173	-0.7954	-0.796287	-0.0794156	2	-0.000827356	6.32376e-05
2	0	0	1	1	26.5473	-0.798399	-0.799273	-0.0811101	2	-0.000829772	6.48292e-05
2	0	0	1	1	26.5773	-0.801398	-0.802264	-0.0828907	2	-0.000832239	6.65002e-05
2	0	0	1	1	26.6073	-0.804397	-0.805251	-0.0847373	2	-0.000834761	6.82348e-05
2	0	0	1	1	26.6373	-0.807396	-0.808279	-0.0866133	2	-0.000837339	7.00077e-05
2	0	0	1	1	26.6673	-0.810395	-0.81127	-0.0885521	2	-0.000839975	7.18397e-05
2	0	0	1	1	26.6973	-0.813394	-0.814275	-0.0905891	2	-0.00084267	7.37644e-05
2	0	0	1	1	26.7273	-0.816393	-0.817288	-0.0927326	2	-0.000845428	7.57892e-05
2	0	0	1	1	26.7573	-0.819392	-0.820283	-0.0948466	2	-0.000848249	7.78011e-05
2	0	0	1	1	26.7873	-0.822391	-0.823296	-0.0971195	2	-0.000851136	7.99581e-05
2	0	0	1	1	26.8173	-0.825389	-0.826277	-0.0994243	2	-0.000854091	8.2152e-05
2	0	0	1	1	26.8473	-0.828388	-0.829278	-0.101806	2	-0.000857117	8.44254e-05
2	0	0	0	1	26.9083	-0.834486	-0.835345	-0.106421	2	-0.000863448	8.88978e-05
2	0	0	0	1	26.9383	-0.837485	-0.838319	-0.109046	2	-0.000866697	9.14154e-05
2	0	0	0	1	26.9682	-0.840484	-0.841315	-0.111757	2	-0.000870015	9.40232e-05
2	0	0	1	1	26.9981	-0.843483	-0.844323	-0.114604	2	-0.000873416	9.67626e-05
2	0	0	1	1	27.0281	-0.846482	-0.847328	-0.117483	2	-0.000876914	9.95466e-05
2	0	0	1	1	27.0581	-0.849481	-0.850314	-0.120453	2	-0.0008805	0.000102423
2	0	0	1	1	27.0881	-0.85248	-0.853304	-0.123473	2	-0.000884178	0.00010536
2	0	0	1	1	27.1181	-0.855479	-0.856332	-0.126701	2	-0.00088795	0.000108498
2	0	0	1	1	27.1481	-0.858478	-0.859319	-0.130032	2	-0.00089182	0.000111739
2	0	0	1	1	27.1781	-0.861477	-0.862328	-0.133452	2	-0.00089579	0.00011508
2	0	0	1	1	27.2081	-0.864475	-0.86532	-0.13691	2	-0.000899865	0.000118471
2	0	0	1	1	27.2381	-0.867474	-0.868318	-0.140659	2	-0.000904047	0.000122136
2	0	0	1	1	27.2681	-0.870473	-0.871311	-0.144342	2	-0.000908341	0.000125767
2	0	0	1	1	27.2981	-0.873472	-0.874316	-0.148329	2	-0.00091275	0.000129686
2	0	0	1	1	27.3281	-0.876471	-0.877314	-0.152328	2	-0.000917277	0.000133639
2	0	0	1	1	27.3581	-0.87947	-0.880306	-0.156496	2	-0.000921928	0.000137764
2	0	0	1	1	27.3881	-0.882469	-0.883328	-0.160858	2	-0.000926705	0.00014209
2	0	0	1	1	27.4181	-0.885468	-0.886306	-0.165244	2	-0.000931614	0.000146457
2	0	0	1	1	27.4481	-0.888467	-0.889309	-0.169713	2	-0.000936657	0.000150928
2	0	0	1	1	27.4781	-0.891466	-0.892294	-0.17453	2	-0.00094184	0.000155732
2	0	0	1	1	27.5081	-0.894465	-0.895316	-0.179444	2	-0.000947169	0.000160659
2	0	0	0	1	27.5379	-0.897464	-0.898294	-0.184544	2	-0.00095261	0.000165775
2	1	0	1	0	27.564	-0.900013	-0.900823	-0.188828	2	-0.0009575	0.000170101
2	1	0	0	0	27.5895	-0.897464	-0.898296	-0.179822	2	-0.000962162	0.000161533
2	1	0	1	0	27.6193	-0.894465	-0.895293	-0.17258	2	-0.000967391	0.00015451
2	1	0	1	0	27.6493	-0.891466	-0.892303	-0.16607	2	-0.00097245	0.000148185
2	1	0	1	0	27.6793	-0.888467	-0.889302	-0.160028	2	-0.000977321	0.000142313
2	1	0	1	0	27.7093	-0.885468	-0.886297	-0.154241	2	-0.000982015	0.000136704
2	1	0	1	0	27.7393	-0.882469	-0.883312	-0.148819	2	-0.00098654	0.000131453
2	1	0	1	0	27.7693	-0.87947	-0.880285	-0.143499	2	-0.000990905	0.00012632
2	1	0	1	0	27.7993	-0.876471	-0.877314	-0.138528	2	-0.000995117	0.000121533
2	1	0	1	0	27.8293	-0.873472	-0.874309	-0.133765	2	-0.000999182	0.000116952
2	1	0	1	0	27.8593	-0.870473	-0.871311	-0.129083	2	-0.00100311	0.000112471
2	1	0	1	0	27.8893	-0.867474	-0.868303	-0.124747	2	-0.0010069	0.000108318
2	1	0	1	0	27.9193	-0.864475	-0.86531	-0.120484	2	-0.00101055	0.000104256
2	1	0	1	0	27.9493	-0.861476	-0.862319	-0.116383	2	-0.00101409	0.000100359
2	1	0	1	0	27.9793	-0.858478	-0.85929	-0.112444	2	-0.0010175	9.6622e-05
2	1	0	1	0	28.0093	-0.855479	-0.856302	-0.108592	2	-0.0010208	9.29876e-05
2	1	0	1	0	28.0393	-0.85248	-0.853293	-0.104917	2	-0.00102398	8.95253e-05
2	1	0	1	0	28.0693	-0.849481	-0.850302	-0.101371	2	-0.00102706	8.61956e-05
2	1	0	1	0	28.0993	-0.846482	-0.847316	-0.0978901	2	-0.00103003	8.29439e-05
2	1	0	1	0	28.1293	-0.843483	-0.844335	-0.0947772	2	-0.0010329	8.00236e-05
2	1	0	1	0	28.1592	-0.840482	-0.841332	-0.0915757	2	-0.00103567	7.70456e-05
2	1	0	0	0	28.1891	-0.837485	-0.838323	-0.0884534	2	-0.00103834	7.41525e-05
2	1	0	0	0	28.2191	-0.834486	-0.835332	-0.0855926	2	-0.00104093	7.14983e-05
2	1	0	0	0	28.2491	-0.831487	-0.832321	-0.0827537	2	-0.00104344	6.88776e-05
2	1	0	0	0	28.2791	-0.828488	-0.829331	-0.0800077	2	-0.00104586	6.63528e-05
2	1	0	0	0	28.3091	-0.825489	-0.826319	-0.0773526	2	-0.0010482	6.3918e-05
2	1	0	0	0	28.3391	-0.82249	-0.823334	-0.0748201	2	-0.00105047	6.1602e-05
2	1	0	0	0	28.3691	-0.819492	-0.820339	-0.0724102	2	-0.00105266	5.94009e-05
2	1	0	0	0	28.3991	-0.816493	-0.817338	-0.0699629	2	-0.00105477	5.71834e-05
2	1	0	0	0	28.4291	-0.813494	-0.814325	-0.0676996	2	-0.00105682	5.51294e-05
2	1	0	0	0	28.4591	-0.810495	-0.811334	-0.0654881	2	-0.0010588	5.31327e-05
2	1	0	0	0	28.4891	-0.807496	-0.808334	-0.0633394	2	-0.00106072	5.11993e-05
2	1	0	0	0	28.5191	-0.804497	-0.805322	-0.0613374	2	-0.00106257	4.93964e-05
2	1	0	0	0	28.5491	-0.801498	-0.802317	-0.0593695	2	-0.00106436	4.76331e-05
2	1	0	0	0	28.5791	-0.798499	-0.79932	-0.0574143	2	-0.00106609	4.58925e-05
2	1	0	0	0	28.6091	-0.7955	-0.79632	-0.055531	2	-0.00106777	4.42205e-05
2	1	0	0	0	28.6391	-0.792501	-0.793314	-0.0538178	2	-0.00106939	4.26944e-05
2	1	0	0	0	28.6691	-0.789502	-0.790327	-0.052125	2	-0.00107096	4.11958e-05
2	1	0	0	0	28.6991	-0.786503	-0.787331	-0.0504678	2	-0.00107248	3.97348e-05
2	1	0	1	0	28.7289	-0.783504	-0.784329	-0.0488629	2	-0.00107395	3.83245e-05
2	1	0	1	0	28.7589	-0.780505	-0.781345	-0.0473155	2	-0.00107537	3.69697e-05
2	1	0	1	0	28.8044	-0.775957	-0.776793	-0.0451025	2	-0.00107744	3.50354e-05
2	1	0	0	0	28.8499	-0.771409	-0.772212	-0.0429056	2	-0.00107943	3.31322e-05
2	1	0	0	0	28.8799	-0.76841	-0.769221	-0.0415885	2	-0.00108069	3.19908e-05
2	1	0	0	0	28.9099	-0.765411	-0.766215	-0.0403185	2	-0.00108191	3.08927e-05
2	1	0	0	0	28.9399	-0.762412	-0.763216	-0.0390904	2	-0.00108309	2.98344e-05
2	1	0	0	0	28.9699	-0.759413	-0.760224	-0.0379514	2	-0.00108424	2.88516e-05
2	1	0	0	0	28.9999	-0.756414	-0.757232	-0.0368014	2	-0.00108535	2.78672e-05
2	1	0	0	0	29.0299	-0.753415	-0.754224	-0.0356863	2	-0.00108643	2.69155e-05
2	1	0	0	0	29.0599	-0.750416	-0.751225	-0.0346951	2	-0.00108748	2.60638e-05
2	1	0	0	0	29.0899	-0.747417	-0.748242	-0.0336978	2	-0.0010885	2.52141e-05
2	1	0	0	0	29.1199	-0.744418	-0.745235	-0.0327162	2	-0.00108949	2.43812e-05
2	1	0	0	0	29.1499	-0.741419	-0.742244	-0.0317858	2	-0.00109045	2.35928e-05
2	1	0	0	0	29.1799	-0.738421	-0.739252	-0.0309264	2	-0.00109138	2.28624e-05
2	1	0	0	0	29.2099	-0.735422	-0.736251	-0.0300391	2	-0.00109229	2.21163e-05
2	1	0	0	0	29.2399	-0.732423	-0.733245	-0.0292324	2	-0.00109317	2.14345e-05
2	1	0	0	0	29.2699	-0.729424	-0.730257	-0.0284623	2	-0.00109402	2.07848e-05
2	1	0	1	0	29.2997	-0.726425	-0.727236	-0.0276697	2	-0.00109485	2.01224e-05
2	1	0	1	0	29.3297	-0.723426	-0.72424	-0.0269748	2	-0.00109566	1.95363e-05
2	1	0	1	0	29.3597	-0.720427	-0.721262	-0.0262954	2	-0.00109645	1.89659e-05
2	1	0	1	0	29.3897	-0.717428	-0.718241	-0.0255906	2	-0.00109723	1.83802e-05
2	1	0	1	0	29.4197	-0.714429	-0.71525	-0.0249786	2	-0.00109798	1.78659e-05
2	1	0	1	0	29.4497	-0.71143	-0.712243	-0.0243481	2	-0.00109871	1.73418e-05
2	1	0	1	0	29.4797	-0.708431	-0.709242	-0.0237305	2	-0.00109942	1.68307e-05
2	1	0	1	0	29.5097	-0.705432	-0.706257	-0.0231876	2	-0.00110012	1.63764e-05
2	1	0	1	0	29.5397	-0.702433	-0.70325	-0.0226414	2	-0.0011008	1.59226e-05
2	1	0	1	0	29.5697	-0.699434	-0.700265	-0.0221061	2	-0.00110146	1.54801e-05
2	1	0	1	0	29.5997	-0.696436	-0.697272	-0.0216785	2	-0.00110211	1.51158e-05
2	1	0	1	0	29.6297	-0.693437	-0.694257	-0.0211925	2	-0.00110275	1.4713e-05
2	1	0	1	0	29.6597	-0.690438	-0.691254	-0.0207173	2	-0.00110337	1.43209e-05
2	1	0	1	0	29.6897	-0.687439	-0.688251	-0.0203009	2	-0.00110397	1.39721e-05
2	1	0	1	0	29.7197	-0.68444	-0.68525	-0.0198712	2	-0.00110457	1.36167e-05
2	1	0	1	0	29.7497	-0.681441	-0.682274	-0.0194836	2	-0.00110515	1.32932e-05
2	1	0	1	0	29.7797	-0.678442	-0.679257	-0.0190941	2	-0.00110572	1.29698e-05
2	1	0	1	0	29.8097	-0.675443	-0.67626	-0.0187313	2	-0.00110628	1.26672e-05
2	1	0	1	0	29.8396	-0.672442	-0.673242	-0.0183281	2	-0.00110683	1.23392e-05
2	1	0	0	0	29.8695	-0.669445	-0.670268	-0.0180313	2	-0.00110737	1.20858e-05
2	1	0	0	0	29.8995	-0.666446	-0.667273	-0.0177305	2	-0.00110789	1.18311e-05
2	1	0	0	0	29.9295	-0.663447	-0.664269	-0.0174032	2	-0.00110841	1.15604e-05
2	1	0	0	0	29.9595	-0.660448	-0.661276	-0.0170979	2	-0.00110892	1.13064e-05
2	1	0	0	0	29.9895	-0.657449	-0.658273	-0.0168448	2	-0.00110942	1.10885e-05
2	1	0	0	0	30.0195	-0.654451	-0.655269	-0.0165555	2	-0.00110992	1.08483e-05
2	1	0	0	0	30.0495	-0.651452	-0.652266	-0.0162932	2	-0.0011104	1.06275e-05
2	1	0	0	0	30.0795	-0.648453	-0.64926	-0.0160459	2	-0.00111088	1.0418e-05
2	1	0	0	0	30.1095	-0.645454	-0.646265	-0.0157721	2	-0.00111135	1.01929e-05
2	1	0	0	0	30.1395	-0.642455	-0.64327	-0.0155475	2	-0.00111181	1.00012e-05
2	1	0	0	0	30.1695	-0.639456	-0.640287	-0.0153541	2	-0.00111227	9.83105e-06
2	1	0	0	0	30.1995	-0.636457	-0.637285	-0.0150818	2	-0.00111271	9.61138e-06
2	1	0	0	0	30.2295	-0.633458	-0.634276	-0.0148848	2	-0.00111316	9.44107e-06
2	1	0	0	0	30.2595	-0.630459	-0.631284	-0.014699	2	-0.00111359	9.27927e-06
2	1	0	0	0	30.2895	-0.62746	-0.62828	-0.0144836	2	-0.00111402	9.09973e-06
2	1	0	0	0	30.3195	-0.624461	-0.625292	-0.014289	2	-0.00111445	8.93482e-06
2	1	0	0	0	30.3495	-0.621462	-0.622297	-0.0141195	2	-0.00111486	8.78653e-06
2	1	0	0	0	30.3795	-0.618463	-0.619284	-0.0139307	2	-0.00111528	8.62708e-06
2	1	0	1	0	30.4093	-0.615464	-0.616292	-0.0136972	2	-0.00111568	8.44145e-06
2	1	0	1	0	30.4393	-0.612465	-0.613283	-0.0135133	2	-0.00111608	8.28751e-06
2	1	0	1	0	30.4693	-0.609467	-0.610277	-0.013376	2	-0.00111648	8.1631e-06
2	1	0	1	0	30.4993	-0.606468	-0.607292	-0.0131826	2	-0.00111687	8.00571e-06
2	1	0	1	0	30.5293	-0.603469	-0.604281	-0.0130129	2	-0.00111725	7.86344e-06
2	1	0	1	0	30.5593	-0.60047	-0.601296	-0.0128771	2	-0.00111763	7.74295e-06
2	1	0	1	0	30.5893	-0.597471	-0.598276	-0.0126978	2	-0.00111801	7.59681e-06
2	1	0	1	0	30.6193	-0.594472	-0.595283	-0.0125534	2	-0.00111838	7.47283e-06
2	1	0	1	0	30.6493	-0.591473	-0.592284	-0.0123993	2	-0.00111875	7.34388e-06
2	1	0	1	0	30.6793	-0.588474	-0.589289	-0.0122749	2	-0.00111911	7.23346e-06
2	1	0	1	0	30.7093	-0.585475	-0.58628	-0.012074	2	-0.00111946	7.07873e-06
2	1	0	1	0	30.7393	-0.582476	-0.58331	-0.0119278	2	-0.00111982	6.95759e-06
2	1	0	1	0	30.7693	-0.579477	-0.580303	-0.0118011	2	-0.00112017	6.8482e-06
2	1	0	1	0	30.7993	-0.576478	-0.577292	-0.0116225	2	-0.00112051	6.70959e-06
2	1	0	1	0	30.8293	-0.573479	-0.57429	-0.011497	2	-0.00112085	6.60259e-06
2	1	0	1	0	30.8593	-0.570481	-0.571294	-0.011343	2	-0.00112118	6.4802e-06
2	1	0	1	0	30.8893	-0.567482	-0.568309	-0.0112079	2	-0.00112151	6.36954e-06
2	1	0	1	0	30.9193	-0.564483	-0.56529	-0.0110633	2	-0.00112184	6.25398e-06
2	1	0	1	0	30.9493	-0.561484	-0.562302	-0.0109114	2	-0.00112216	6.13552e-06
2	1	0	0	0	30.9791	-0.558485	-0.559292	-0.0107794	2	-0.00112247	6.02882e-06
2	1	0	0	0	31.0091	-0.555486	-0.556307	-0.010623	2	-0.00112279	5.90965e-06
2	1	0	0	0	31.0391	-0.552487	-0.553299	-0.0104824	2	-0.0011231	5.79992e-06
2	1	0	0	0	31.0691	-0.549488	-0.550301	-0.0103114	2	-0.0011234	5.67436e-06
2	1	0	0	0	31.0991	-0.546489	-0.54731	-0.0101729	2	-0.0011237	5.56775e-06
2	1	0	0	0	31.1291	-0.54349	-0.544299	-0.0100429	2	-0.00112399	5.46634e-06
2	1	0	0	0	31.1591	-0.540491	-0.54129	-0.0098806	2	-0.00112429	5.34827e-06
2	1	0	0	0	31.1891	-0.537492	-0.538313	-0.0097714	2	-0.00112457	5.26008e-06
2	1	0	0	0	31.2191	-0.534493	-0.535305	-0.00961694	2	-0.00112485	5.14799e-06
2	1	0	0	0	31.2491	-0.531494	-0.532313	-0.00942077	2	-0.00112513	5.0148e-06
2	1	0	0	0	31.2791	-0.528496	-0.529324	-0.00929977	2	-0.00112541	4.92259e-06
2	1	0	0	0	31.3091	-0.525497	-0.526313	-0.00916571	2	-0.00112568	4.82403e-06
2	1	0	0	0	31.3391	-0.522498	-0.52332	-0.00902269	2	-0.00112594	4.72175e-06
2	1	0	0	0	31.3691	-0.519499	-0.520313	-0.008875	2	-0.0011262	4.61778e-06
2	1	0	0	0	31.3991	-0.5165	-0.517326	-0.00869926	2	-0.00112646	4.50035e-06
2	1	0	0	0	31.4291	-0.513501	-0.514322	-0.00852879	2	-0.00112671	4.38654e-06
2	1	0	0	0	31.4591	-0.510502	-0.511325	-0.00843057	2	-0.00112695	4.31076e-06
2	1	0	0	0	31.4891	-0.507503	-0.508317	-0.00827026	2	-0.0011272	4.20391e-06
2	1	0	0	0	31.519	-0.5045	-0.505312	-0.00804941	2	-0.00112743	4.06746e-06
2	1	0	1	0	31.5489	-0.501505	-0.50232	-0.00795214	2	-0.00112766	3.99451e-06
2	1	0	1	0	31.5789	-0.498506	-0.499305	-0.0077397	2	-0.00112789	3.86447e-06
2	1	0	1	0	31.6089	-0.495507	-0.496297	-0.00761349	2	-0.00112811	3.77855e-06
2	1	0	1	0	31.6389	-0.492508	-0.493322	-0.00748663	2	-0.00112833	3.69332e-06
2	1	0	1	0	31.6689	-0.489509	-0.490282	-0.00729034	2	-0.00112855	3.57432e-06
2	1	0	1	0	31.6989	-0.486511	-0.48732	-0.00712161	2	-0.00112875	3.4705e-06
2	1	0	1	0	31.7289	-0.483512	-0.484315	-0.0069491	2	-0.00112896	3.36555e-06
2	1	0	1	0	31.7589	-0.480513	-0.481313	-0.00679372	2	-0.00112916	3.26991e-06
2	1	0	1	0	31.7889	-0.477514	-0.478321	-0.0066209	2	-0.00112935	3.16692e-06
2	1	0	1	0	31.8189	-0.474515	-0.475323	-0.00647152	2	-0.00112954	3.07606e-06
2	1	0	1	0	31.8489	-0.471516	-0.472314	-0.0062626	2	-0.00112972	2.95792e-06
2	1	0	1	0	31.8789	-0.468517	-0.469313	-0.00609555	2	-0.0011299	2.86072e-06
2	1	0	1	0	31.9089	-0.465518	-0.466333	-0.00589997	2	-0.00113007	2.75135e-06
2	1	0	1	0	31.9389	-0.462519	-0.463334	-0.00574188	2	-0.00113024	2.66041e-06
2	1	0	1	0	31.9689	-0.45952	-0.460317	-0.00552613	2	-0.0011304	2.54377e-06
2	1	0	1	0	31.9989	-0.456521	-0.457342	-0.00536593	2	-0.00113055	2.45407e-06
2	1	0	1	0	32.0289	-0.453522	-0.454328	-0.00515052	2	-0.0011307	2.34003e-06
2	1	0	1	0	32.0589	-0.450523	-0.451335	-0.00498854	2	-0.00113085	2.2515e-06
2	1	0	0	0	32.0887	-0.447524	-0.448317	-0.00476386	2	-0.00113098	2.13572e-06
2	1	0	0	0	32.1187	-0.444526	-0.445318	-0.00453868	2	-0.00113111	2.02116e-06
2	1	0	1	0	32.1797	-0.438428	-0.439236	-0.00390568	2	-0.00113137	1.71551e-06
2	1	0	1	0	32.2097	-0.435429	-0.436236	-0.00368432	2	-0.00113149	1.60723e-06
2	1	0	1	0	32.2397	-0.43243	-0.433229	-0.00347674	2	-0.00113159	1.50623e-06
2	1	0	1	0	32.2697	-0.429431	-0.43023	-0.00322815	2	-0.00113169	1.38885e-06
2	1	0	1	0	32.2997	-0.426432	-0.427224	-0.00300439	2	-0.00113179	1.28355e-06
2	1	0	1	0	32.3297	-0.423433	-0.424233	-0.00278633	2	-0.00113187	1.18205e-06
2	1	0	1	0	32.3597	-0.420434	-0.421228	-0.00257289	2	-0.00113195	1.08377e-06
2	1	0	1	0	32.3897	-0.417435	-0.418232	-0.00234512	2	-0.00113203	9.80805e-07
2	1	0	1	0	32.4197	-0.414436	-0.415232	-0.00212283	2	-0.00113209	8.81469e-07
2	1	0	1	0	32.4497	-0.411437	-0.41224	-0.00190089	2	-0.00113215	7.83622e-07
2	1	0	1	0	32.4797	-0.408438	-0.409232	-0.00165195	2	-0.00113221	6.76031e-07
2	1	0	1	0	32.5097	-0.40544	-0.406234	-0.00142913	2	-0.00113225	5.80561e-07
2	1	0	1	0	32.5397	-0.402441	-0.403231	-0.00117589	2	-0.00113229	4.74155e-07
2	1	0	1	0	32.5697	-0.399442	-0.400224	-0.00094276	2	-0.00113232	3.77315e-07
2	1	0	1	0	32.5997	-0.396443	-0.39721	-0.0007135	2	-0.00113235	2.83409e-07
2	1	0	1	0	32.6297	-0.393444	-0.394221	-0.000476846	2	-0.00113236	1.87983e-07
2	1	0	0	0	32.6595	-0.390445	-0.391211	-0.000238541	2	-0.00113237	9.332e-08
2	1	0	0	0	32.6895	-0.387446	-0.388221	1.03554e-06	2	-0.00113238	4.02018e-10
2	1	0	0	0	32.7195	-0.384447	-0.385216	0.000245143	2	-0.00113237	9.4433e-08
2	1	0	0	0	32.7495	-0.381448	-0.382212	0.000487668	2	-0.00113236	1.86393e-07
2	1	0	0	0	32.7795	-0.378449	-0.379218	0.000732539	2	-0.00113234	2.77792e-07
2	1	0	0	0	32.8095	-0.37545	-0.376218	0.000953705	2	-0.00113232	3.58801e-07
2	1	0	0	0	32.8395	-0.372451	-0.373227	0.00118637	2	-0.00113229	4.42784e-07
2	1	0	0	0	32.8695	-0.369452	-0.370229	0.00145335	2	-0.00113225	5.3807e-07
2	1	0	0	0	32.8995	-0.366453	-0.367232	0.0016738	2	-0.0011322	6.14672e-07
2	1	0	0	0	32.9295	-0.363455	-0.36422	0.00189752	2	-0.00113214	6.91114e-07
2	1	0	0	0	32.9595	-0.360456	-0.361217	0.00214034	2	-0.00113208	7.73126e-07
2	1	0	0	0	32.9895	-0.357457	-0.358225	0.00236909	2	-0.00113202	8.48669e-07
2	1	0	0	0	33.0195	-0.354458	-0.355217	0.00260884	2	-0.00113194	9.26704e-07
2	1	0	0	0	33.0495	-0.351459	-0.352217	0.00284173	2	-0.00113186	1.0009e-06
2	1	0	0	0	33.0795	-0.34846	-0.349241	0.00307397	2	-0.00113177	1.07356e-06
2	1	0	0	0	33.1095	-0.345461	-0.346217	0.00329627	2	-0.00113167	1.14123e-06
2	1	0	0	0	33.1395	-0.342462	-0.34323	0.00353751	2	-0.00113157	1.21418e-06
2	1	0	0	0	33.1695	-0.339463	-0.340217	0.00376093	2	-0.00113146	1.27953e-06
2	1	0	0	0	33.1994	-0.336455	-0.337226	0.00402148	2	-0.00113135	1.35615e-06
2	1	0	1	0	33.2293	-0.333465	-0.334225	0.00424322	2	-0.00113122	1.41819e-06
2	1	0	1	0	33.2593	-0.330466	-0.331237	0.00447968	2	-0.00113109	1.48384e-06
2	1	0	1	0	33.2893	-0.327467	-0.328221	0.00470222	2	-0.00113095	1.54337e-06
2	1	0	1	0	33.3193	-0.324468	-0.32525	0.00491264	2	-0.00113081	1.59784e-06
2	1	0	1	0	33.3493	-0.32147	-0.322238	0.00515439	2	-0.00113066	1.66094e-06
2	1	0	1	0	33.3793	-0.318471	-0.319242	0.00540348	2	-0.0011305	1.72502e-06
2	1	0	1	0	33.4093	-0.315472	-0.316225	0.00562614	2	-0.00113033	1.77912e-06
2	1	0	1	0	33.4393	-0.312473	-0.313236	0.00588577	2	-0.00113016	1.84363e-06
2	1	0	1	0	33.4693	-0.309474	-0.31025	0.00611564	2	-0.00112998	1.89738e-06
2	1	0	1	0	33.4993	-0.306475	-0.307244	0.00635969	2	-0.00112979	1.95397e-06
2	1	0	1	0	33.5293	-0.303476	-0.304215	0.00662132	2	-0.0011296	2.0143e-06
2	1	0	1	0	33.5593	-0.300477	-0.301227	0.00685944	2	-0.0011294	2.06625e-06
2	1	0	1	0	33.5893	-0.297478	-0.298227	0.00710873	2	-0.00112919	2.12002e-06
2	1	0	1	0	33.6193	-0.294479	-0.295218	0.00737518	2	-0.00112897	2.17729e-06
2	1	0	1	0	33.6493	-0.29148	-0.292223	0.00764571	2	-0.00112874	2.23425e-06
2	1	0	1	0	33.6793	-0.288481	-0.289219	0.00790897	2	-0.00112851	2.28742e-06
2	1	0	1	0	33.7093	-0.285482	-0.286229	0.00819001	2	-0.00112827	2.34422e-06
2	1	0	1	0	33.7393	-0.282483	-0.283224	0.0084686	2	-0.00112802	2.39851e-06
2	1	0	0	0	33.7691	-0.279485	-0.280222	0.00876396	2	-0.00112776	2.45585e-06
2	1	0	0	0	33.7991	-0.276486	-0.27722	0.00905907	2	-0.00112749	2.51136e-06
2	1	0	0	0	33.8291	-0.273487	-0.274241	0.00933534	2	-0.00112722	2.56014e-06
2	1	0	0	0	33.8591	-0.270488	-0.271231	0.00965868	2	-0.00112693	2.61974e-06
2	1	0	0	0	33.8891	-0.267489	-0.268235	0.00997502	2	-0.00112664	2.67565e-06
2	1	0	0	0	33.9346	-0.26294	-0.263702	0.0103338	2	-0.00112617	2.72504e-06
2	1	0	1	0	33.9801	-0.258392	-0.259175	0.0106719	2	-0.00112569	2.7659e-06
2	1	0	1	0	34.0101	-0.255393	-0.256175	0.0110302	2	-0.00112536	2.82565e-06
2	1	0	1	0	34.0401	-0.252394	-0.253174	0.0113376	2	-0.00112501	2.87039e-06
2	1	0	1	0	34.0701	-0.249395	-0.25018	0.0116775	2	-0.00112466	2.92148e-06
2	1	0	1	0	34.1001	-0.246396	-0.247168	0.012033	2	-0.00112429	2.97419e-06
2	1	0	1	0	34.1301	-0.243397	-0.244187	0.0123815	2	-0.00112392	3.02341e-06
2	1	0	1	0	34.1601	-0.240398	-0.241161	0.0127516	2	-0.00112353	3.0752e-06
2	1	0	1	0	34.1901	-0.2374	-0.23818	0.0131511	2	-0.00112314	3.13233e-06
2	1	0	1	0	34.2201	-0.234401	-0.235186	0.0134672	2	-0.00112273	3.1673e-06
2	1	0	1	0	34.2501	-0.231402	-0.232183	0.0138554	2	-0.00112231	3.21699e-06
2	1	0	1	0	34.2801	-0.228403	-0.229174	0.0142064	2	-0.00112188	3.25574e-06
2	1	0	1	0	34.3101	-0.225404	-0.226186	0.014574	2	-0.00112144	3.29644e-06
2	1	0	0	0	34.3399	-0.222405	-0.223203	0.0149454	2	-0.001121	3.33586e-06
2	1	0	0	0	34.3699	-0.219406	-0.220195	0.015329	2	-0.00112053	3.37538e-06
2	1	0	0	0	34.3999	-0.216407	-0.21717	0.0157695	2	-0.00112006	3.42467e-06
2	1	0	0	0	34.4299	-0.213408	-0.214188	0.0161221	2	-0.00111957	3.45316e-06
2	1	0	0	0	34.4599	-0.210409	-0.211193	0.016492	2	-0.00111907	3.483e-06
2	1	0	0	0	34.4899	-0.20741	-0.208195	0.0169237	2	-0.00111856	3.52342e-06
2	1	0	0	0	34.5199	-0.204411	-0.205175	0.0172805	2	-0.00111804	3.54554e-06
2	1	0	0	0	34.5499	-0.201412	-0.202196	0.0177096	2	-0.00111751	3.58081e-06
2	1	0	0	0	34.5799	-0.198413	-0.199193	0.018071	2	-0.00111696	3.59962e-06
2	1	0	0	0	34.6099	-0.195415	-0.196206	0.0184626	2	-0.00111641	3.62248e-06
2	1	0	0	0	34.6399	-0.192416	-0.193199	0.0189044	2	-0.00111584	3.65231e-06
2	1	0	0	0	34.6699	-0.189417	-0.190179	0.0193182	2	-0.00111526	3.67392e-06
2	1	0	0	0	34.6999	-0.186418	-0.18718	0.0196787	2	-0.00111466	3.68346e-06
2	1	0	0	0	34.7299	-0.183419	-0.184187	0.0200817	2	-0.00111406	3.69878e-06
2	1	0	0	0	34.7599	-0.18042	-0.181193	0.0204568	2	-0.00111344	3.70662e-06
2	1	0	0	0	34.7899	-0.177421	-0.178196	0.0208483	2	-0.00111281	3.71507e-06
2	1	0	0	0	34.8199	-0.174422	-0.175229	0.0212441	2	-0.00111217	3.72257e-06
2	1	0	0	0	34.8499	-0.171423	-0.172197	0.0215991	2	-0.00111152	3.71931e-06
2	1	0	1	0	34.8797	-0.168424	-0.169183	0.0220252	2	-0.00111087	3.72629e-06
2	1	0	1	0	34.9097	-0.165425	-0.166198	0.0223498	2	-0.00111019	3.71449e-06
2	1	0	1	0	34.9397	-0.162426	-0.163207	0.0226893	2	-0.00110951	3.70305e-06
2	1	0	1	0	34.9697	-0.159427	-0.160202	0.0229528	2	-0.00110882	3.67709e-06
2	1	0	1	0	34.9997	-0.156428	-0.157211	0.023295	2	-0.00110811	3.66222e-06
2	1	0	1	0	35.0297	-0.15343	-0.154212	0.0235935	2	-0.0011074	3.6384e-06
2	1	0	1	0	35.0597	-0.150431	-0.151195	0.0238769	2	-0.00110668	3.61007e-06
2	1	0	1	0	35.0897	-0.147432	-0.148192	0.0240736	2	-0.00110595	3.56753e-06
2	1	0	1	0	35.1197	-0.144433	-0.145214	0.0243181	2	-0.00110522	3.53133e-06
2	1	0	1	0	35.1497	-0.141434	-0.142196	0.0245415	2	-0.00110448	3.4897e-06
2	1	0	1	0	35.1797	-0.138435	-0.139195	0.0246338	2	-0.00110373	3.42889e-06
2	1	0	1	0	35.2097	-0.135436	-0.136215	0.0247809	2	-0.00110298	3.37552e-06
2	1	0	1	0	35.2397	-0.132437	-0.133194	0.0248505	2	-0.00110223	3.30993e-06
2	1	0	1	0	35.2697	-0.129438	-0.130214	0.0249218	2	-0.00110147	3.24515e-06
2	1	0	1	0	35.2997	-0.126439	-0.127226	0.0249391	2	-0.00110072	3.17291e-06
2	1	0	1	0	35.3297	-0.12344	-0.124218	0.0248934	2	-0.00109996	3.09222e-06
2	1	0	1	0	35.3597	-0.120441	-0.12123	0.0248491	2	-0.00109921	3.01247e-06
2	1	0	1	0	35.3897	-0.117442	-0.118238	0.0248081	2	-0.00109846	2.93327e-06
2	1	0	1	0	35.4197	-0.114444	-0.115232	0.0246348	2	-0.00109771	2.83873e-06
2	1	0	0	0	35.4495	-0.111445	-0.112211	0.0244827	2	-0.00109697	2.74724e-06
2	1	0	0	0	35.4795	-0.108446	-0.109231	0.0242422	2	-0.00109623	2.64801e-06
2	1	0	0	0	35.5095	-0.105447	-0.106242	0.0240268	2	-0.00109549	2.55265e-06
2	1	0	0	0	35.5395	-0.102448	-0.103228	0.0237913	2	-0.00109477	2.45592e-06
2	1	0	0	0	35.5695	-0.0994489	-0.100217	0.0235473	2	-0.00109405	2.35984e-06
2	1	0	0	0	35.5995	-0.0964499	-0.0972391	0.0232513	2	-0.00109334	2.26094e-06
2	1	0	0	0	35.6295	-0.093451	-0.0942237	0.0229331	2	-0.00109264	2.16084e-06
2	1	0	0	0	35.6595	-0.0904521	-0.0912351	0.0225725	2	-0.00109195	2.05941e-06
2	1	0	0	0	35.6895	-0.0874531	-0.0882227	0.0222231	2	-0.00109127	1.96058e-06
2	1	0	0	0	35.7195	-0.0844542	-0.0852187	0.02191	2	-0.0010906	1.86714e-06
2	1	0	0	0	35.7495	-0.0814553	-0.0822462	0.0215147	2	-0.00108994	1.7695e-06
2	1	0	0	0	35.7795	-0.0784564	-0.0792408	0.0212083	2	-0.00108929	1.68056e-06
2	1	0	0	0	35.8095	-0.0754574	-0.0762437	0.0208174	2	-0.00108865	1.58719e-06
2	1	0	0	0	35.8395	-0.0724585	-0.0732319	0.020501	2	-0.00108802	1.50133e-06
2	1	0	0	0	35.8695	-0.0694596	-0.0702338	0.0201265	2	-0.00108741	1.41356e-06
2	1	0	0	0	35.8995	-0.0664607	-0.0672468	0.0197998	2	-0.0010868	1.33147e-06
2	1	0	0	0	35.9295	-0.0634617	-0.0642415	0.019461	2	-0.0010862	1.25021e-06
2	1	0	0	0	35.9595	-0.0604628	-0.0612322	0.0191142	2	-0.00108561	1.17041e-06
2	1	0	0	0	35.9895	-0.0574639	-0.0582327	0.018806	2	-0.00108504	1.09513e-06
2	1	0	1	0	35.9963	-0.0567641	-0.0575359	0.0187685	2	-0.00108491	1.07986e-06