File: TAP_Report/Data/Res_growth/mg5_3_2.mpt
EC-Lab ASCII FILE
Nb header lines : 54

Cyclic Voltammetry

Run on channel : 1 (SN 0696)
User :
Electrode connection : standard
Ewe ctrl range : min = -2.50 V, max = 2.50 V
Ewe,I filtering : 50 kHz
Channel : Grounded
Acquisition started on : 01/18/2017 14:42:49
Saved on :
	File : mg5_3.mpr
	Directory : H:\EC-Lab\Data\Resazurin Bulk 18-1-17\
	Host : 144.32.136.43
Device : SP-300 (SN 0182)
Address : USB
EC-Lab for windows v10.44 (software)
Internet server v10.44 (firmware)
Command interpretor v10.44 (firmware)
Electrode material :
Initial state :
Electrolyte :
Comments :
Cable : standard
Reference electrode : SCE Saturated Calomel Electrode (0.241 V)
Electrode surface area : 0.001 cm²
Characteristic mass : 0.001 g
Equivalent Weight : 0.000 g/eq.
Density : 0.000 g/cm3
Ei (V)              0.000
vs.                 Eoc
dE/dt               100.000
dE/dt unit          mV/s
E1 (V)              0.000
vs.                 Ref
Step percent        50
N                   10
E range min (V)     -2.500
E range max (V)     2.500
I Range             Auto
I Range min         Unset
I Range max         Unset
I Range init        Unset
Bandwidth           8
E2 (V)              -0.900
vs.                 Ref
nc cycles           2
Reverse Scan        1
Ef (V)              0.000
vs.                 Eoc

mode	ox/red	error	control changes	counter inc.	time/s	control/V	Ewe/V	<I>/mA	cycle number	(Q-Qo)/C	P/W
2	1	0	0	1	18.0011	-0.0435688	-0.0443384	0.014572	2	-0.000744411	6.46101e-07
2	1	0	0	1	18.0311	-0.0405699	-0.041359	0.0143207	2	-0.00074397	5.9229e-07
2	1	0	0	1	18.0611	-0.037571	-0.0383576	0.0141515	2	-0.000743534	5.42818e-07
2	1	0	0	1	18.0911	-0.034572	-0.0353404	0.0139585	2	-0.000743104	4.93299e-07
2	1	0	0	1	18.1211	-0.0315731	-0.0323376	0.0137798	2	-0.00074268	4.45606e-07
2	1	0	0	1	18.1511	-0.0285742	-0.0293449	0.0136127	2	-0.00074226	3.99464e-07
2	1	0	0	1	18.1811	-0.0255753	-0.026339	0.0135056	2	-0.000741845	3.55723e-07
2	1	0	0	1	18.2111	-0.0225763	-0.0233504	0.0133023	2	-0.000741435	3.10614e-07
2	1	0	0	1	18.2411	-0.0195774	-0.0203615	0.013196	2	-0.000741029	2.68691e-07
2	1	0	0	1	18.2711	-0.0165785	-0.0173745	0.0130963	2	-0.000740626	2.27542e-07
2	1	0	0	1	18.3011	-0.0135795	-0.0143546	0.0129807	2	-0.000740227	1.86332e-07
2	1	0	0	1	18.3311	-0.0105806	-0.0113544	0.0129196	2	-0.000739831	1.46694e-07
2	1	0	0	1	18.3611	-0.00758168	-0.00835165	0.0127698	2	-0.000739438	1.06649e-07
2	1	0	0	1	18.3911	-0.00458275	-0.00537583	0.012703	2	-0.000739048	6.82891e-08
2	1	0	0	1	18.4211	-0.00158383	-0.00237163	0.0126001	2	-0.00073866	2.98828e-08
2	0	0	1	1	18.4425	-0.000584183	-0.00142119	0.0105903	2	-0.000738399	1.50508e-08
2	0	0	1	1	18.4725	-0.00358311	-0.00441243	0.00883544	2	-0.000738121	3.89858e-08
2	0	0	1	1	18.5025	-0.00658204	-0.00741497	0.00788866	2	-0.00073788	5.84942e-08
2	0	0	1	1	18.5325	-0.00958097	-0.0103999	0.00716243	2	-0.000737664	7.44885e-08
2	0	0	1	1	18.5625	-0.0125799	-0.0134081	0.00654601	2	-0.000737467	8.77697e-08
2	0	0	1	1	18.5925	-0.0155788	-0.0164159	0.00601353	2	-0.000737287	9.87177e-08
2	0	0	1	1	18.6225	-0.0185778	-0.0194117	0.0055758	2	-0.000737122	1.08236e-07
2	0	0	1	1	18.6525	-0.0215767	-0.0224004	0.00515059	2	-0.000736971	1.15375e-07
2	0	0	1	1	18.6825	-0.0245756	-0.0254066	0.00476615	2	-0.000736831	1.21092e-07
2	0	0	1	1	18.7275	-0.029074	-0.0299201	0.00416481	2	-0.000736633	1.24612e-07
2	0	0	1	1	18.7725	-0.0335724	-0.0343965	0.00348503	2	-0.000736453	1.19873e-07
2	0	0	1	1	18.8025	-0.0365713	-0.0374266	0.00320188	2	-0.000736353	1.19835e-07
2	0	0	1	1	18.8325	-0.0395703	-0.040406	0.00292853	2	-0.000736261	1.1833e-07
2	0	0	1	1	18.8625	-0.0425692	-0.0434094	0.00267758	2	-0.000736177	1.16232e-07
2	0	0	0	1	18.8923	-0.0455681	-0.0464095	0.00243953	2	-0.000736101	1.13218e-07
2	0	0	0	1	18.9223	-0.048567	-0.0494127	0.00222945	2	-0.000736032	1.10163e-07
2	0	0	0	1	18.9523	-0.051566	-0.0524029	0.00201164	2	-0.000735968	1.05416e-07
2	0	0	0	1	18.9823	-0.0545649	-0.0554044	0.00182816	2	-0.000735911	1.01288e-07
2	0	0	0	1	19.0123	-0.0575638	-0.0584039	0.00162437	2	-0.00073586	9.48695e-08
2	0	0	0	1	19.0423	-0.0605627	-0.0613995	0.00142476	2	-0.000735815	8.74796e-08
2	0	0	0	1	19.0723	-0.0635617	-0.0644179	0.00124737	2	-0.000735775	8.03532e-08
2	0	0	0	1	19.1023	-0.0665606	-0.0674138	0.00107482	2	-0.00073574	7.24578e-08
2	0	0	0	1	19.1323	-0.0695595	-0.0704132	0.000935942	2	-0.00073571	6.59026e-08
2	0	0	0	1	19.1623	-0.0725585	-0.0734059	0.000757917	2	-0.000735685	5.56356e-08
2	0	0	0	1	19.1923	-0.0755574	-0.0763983	0.0006139	2	-0.000735665	4.69009e-08
2	0	0	0	1	19.2223	-0.0785563	-0.0794016	0.000456777	2	-0.000735649	3.62689e-08
2	0	0	0	1	19.2523	-0.0815553	-0.0823923	0.000312692	2	-0.000735638	2.57634e-08
2	0	0	0	1	19.2823	-0.0845542	-0.0854058	0.000168678	2	-0.000735631	1.44061e-08
2	0	0	0	1	19.3123	-0.0875531	-0.0883961	2.47063e-05	2	-0.000735629	2.18394e-09
2	0	0	0	1	19.3423	-0.090552	-0.0914007	-0.00011029	2	-0.00073563	1.00806e-08
2	0	0	0	1	19.3723	-0.093551	-0.0944083	-0.000243588	2	-0.000735636	2.29967e-08
2	0	0	0	1	19.4023	-0.0965499	-0.0973947	-0.00038172	2	-0.000735645	3.71775e-08
2	0	0	0	1	19.4323	-0.0995488	-0.100395	-0.000504321	2	-0.000735659	5.06312e-08
2	0	0	1	1	19.4621	-0.102548	-0.103396	-0.000639757	2	-0.000735677	6.61485e-08
2	0	0	1	1	19.4921	-0.105547	-0.106411	-0.000767629	2	-0.000735698	8.16841e-08
2	0	0	1	1	19.5221	-0.108546	-0.109408	-0.000896148	2	-0.000735723	9.80457e-08
2	0	0	1	1	19.5521	-0.111545	-0.112396	-0.00101562	2	-0.000735752	1.14151e-07
2	0	0	1	1	19.5821	-0.114543	-0.115408	-0.00115857	2	-0.000735785	1.33708e-07
2	0	0	1	1	19.6121	-0.117542	-0.118417	-0.00126836	2	-0.000735822	1.50195e-07
2	0	0	1	1	19.6421	-0.120541	-0.121402	-0.00139297	2	-0.000735862	1.6911e-07
2	0	0	1	1	19.6721	-0.12354	-0.124418	-0.00152967	2	-0.000735906	1.90318e-07
2	0	0	1	1	19.7021	-0.126539	-0.127386	-0.00164018	2	-0.000735954	2.08936e-07
2	0	0	1	1	19.7321	-0.129538	-0.130383	-0.00178042	2	-0.000736005	2.32137e-07
2	0	0	1	1	19.7621	-0.132537	-0.133386	-0.00190971	2	-0.000736061	2.5473e-07
2	0	0	1	1	19.7921	-0.135536	-0.136379	-0.0020325	2	-0.00073612	2.7719e-07
2	0	0	1	1	19.8221	-0.138535	-0.13938	-0.0021747	2	-0.000736184	3.0311e-07
2	0	0	1	1	19.8521	-0.141534	-0.142374	-0.00230896	2	-0.000736252	3.28737e-07
2	0	0	1	1	19.8821	-0.144533	-0.145388	-0.00244139	2	-0.000736323	3.54948e-07
2	0	0	1	1	19.9121	-0.147532	-0.148389	-0.00259749	2	-0.000736399	3.85441e-07
2	0	0	1	1	19.9421	-0.150531	-0.151383	-0.00274229	2	-0.00073648	4.15136e-07
2	0	0	1	1	19.9721	-0.15353	-0.154391	-0.00288799	2	-0.000736565	4.4588e-07
2	0	0	1	1	20.002	-0.156533	-0.157398	-0.00309206	2	-0.000736654	4.86683e-07
2	0	0	0	1	20.0319	-0.159527	-0.160374	-0.00321626	2	-0.000736748	5.15805e-07
2	0	0	0	1	20.0619	-0.162526	-0.163391	-0.00337938	2	-0.000736847	5.5216e-07
2	0	0	0	1	20.0919	-0.165525	-0.166381	-0.0035376	2	-0.000736951	5.8859e-07
2	0	0	0	1	20.1219	-0.168524	-0.169393	-0.00371493	2	-0.00073706	6.29284e-07
2	0	0	0	1	20.1519	-0.171523	-0.172386	-0.00389358	2	-0.000737175	6.71201e-07
2	0	0	0	1	20.1819	-0.174522	-0.175385	-0.00409874	2	-0.000737295	7.18855e-07
2	0	0	0	1	20.2119	-0.177521	-0.178393	-0.00429208	2	-0.000737421	7.65677e-07
2	0	0	0	1	20.2419	-0.18052	-0.181373	-0.00450014	2	-0.000737553	8.16204e-07
2	0	0	0	1	20.2719	-0.183519	-0.184372	-0.00471032	2	-0.000737691	8.68452e-07
2	0	0	0	1	20.3019	-0.186518	-0.187375	-0.00493486	2	-0.000737836	9.24669e-07
2	0	0	0	1	20.3319	-0.189517	-0.190373	-0.00516096	2	-0.000737988	9.82508e-07
2	0	0	0	1	20.3619	-0.192516	-0.193385	-0.0054041	2	-0.000738146	1.04507e-06
2	0	0	0	1	20.3919	-0.195515	-0.196383	-0.00565033	2	-0.000738313	1.10963e-06
2	0	0	0	1	20.4219	-0.198513	-0.199371	-0.00590815	2	-0.000738486	1.17791e-06
2	0	0	0	1	20.4519	-0.201512	-0.202382	-0.00618747	2	-0.000738668	1.25223e-06
2	0	0	0	1	20.4819	-0.204511	-0.205407	-0.00647174	2	-0.000738859	1.32934e-06
2	0	0	0	1	20.5119	-0.20751	-0.208383	-0.0067779	2	-0.000739058	1.4124e-06
2	0	0	0	1	20.5419	-0.210509	-0.211365	-0.00707163	2	-0.000739265	1.4947e-06
2	0	0	1	1	20.5717	-0.213508	-0.214389	-0.0073995	2	-0.000739481	1.58637e-06
2	0	0	1	1	20.6017	-0.216507	-0.217399	-0.0077243	2	-0.000739708	1.67926e-06
2	0	0	1	1	20.6317	-0.219506	-0.220398	-0.00804238	2	-0.000739944	1.77253e-06
2	0	0	1	1	20.6617	-0.222505	-0.223388	-0.00837069	2	-0.000740191	1.86992e-06
2	0	0	1	1	20.6917	-0.225504	-0.226387	-0.00872097	2	-0.000740447	1.97432e-06
2	0	0	1	1	20.7217	-0.228503	-0.229383	-0.00906468	2	-0.000740714	2.07929e-06
2	0	0	1	1	20.7517	-0.231502	-0.232403	-0.00941348	2	-0.000740992	2.18772e-06
2	0	0	1	1	20.7817	-0.234501	-0.235396	-0.00977974	2	-0.00074128	2.30211e-06
2	0	0	1	1	20.8117	-0.2375	-0.238385	-0.0101449	2	-0.00074158	2.41838e-06
2	0	0	0	1	20.8727	-0.243597	-0.244465	-0.0106211	2	-0.000742218	2.59648e-06
2	0	0	0	1	20.9027	-0.246596	-0.247455	-0.0109789	2	-0.00074255	2.71678e-06
2	0	0	0	1	20.9327	-0.249595	-0.250464	-0.0113323	2	-0.000742893	2.83834e-06
2	0	0	0	1	20.9627	-0.252594	-0.253464	-0.0117238	2	-0.000743248	2.97156e-06
2	0	0	0	1	20.9927	-0.255593	-0.256471	-0.0120599	2	-0.000743613	3.09301e-06
2	0	0	0	1	21.0227	-0.258592	-0.259456	-0.0124085	2	-0.00074399	3.21945e-06
2	0	0	0	1	21.0527	-0.261591	-0.262465	-0.0128056	2	-0.000744377	3.36102e-06
2	0	0	0	1	21.0827	-0.26459	-0.265459	-0.0131742	2	-0.000744775	3.4972e-06
2	0	0	0	1	21.1127	-0.267589	-0.268462	-0.0135572	2	-0.000745184	3.63961e-06
2	0	0	1	1	21.1425	-0.270588	-0.271459	-0.0139178	2	-0.000745601	3.77812e-06
2	0	0	1	1	21.1725	-0.273587	-0.27445	-0.0142214	2	-0.000746032	3.90305e-06
2	0	0	1	1	21.2025	-0.276586	-0.277444	-0.0146128	2	-0.000746472	4.05423e-06
2	0	0	1	1	21.2325	-0.279585	-0.280446	-0.0149705	2	-0.000746923	4.19843e-06
2	0	0	1	1	21.2625	-0.282583	-0.28346	-0.015258	2	-0.000747384	4.32502e-06
2	0	0	1	1	21.2925	-0.285582	-0.286438	-0.0155988	2	-0.000747855	4.4681e-06
2	0	0	1	1	21.3225	-0.288581	-0.289433	-0.0159373	2	-0.000748336	4.61279e-06
2	0	0	1	1	21.3525	-0.29158	-0.292435	-0.0162556	2	-0.000748828	4.75369e-06
2	0	0	1	1	21.3825	-0.294579	-0.295451	-0.0165871	2	-0.000749329	4.90068e-06
2	0	0	1	1	21.4125	-0.297578	-0.298432	-0.0169214	2	-0.00074984	5.04988e-06
2	0	0	1	1	21.4425	-0.300577	-0.301435	-0.0172301	2	-0.00075036	5.19374e-06
2	0	0	1	1	21.4725	-0.303576	-0.304442	-0.0175576	2	-0.00075089	5.34528e-06
2	0	0	1	1	21.5025	-0.306575	-0.307452	-0.0178778	2	-0.00075143	5.49655e-06
2	0	0	1	1	21.5325	-0.309574	-0.310437	-0.0181959	2	-0.000751979	5.6487e-06
2	0	0	1	1	21.5625	-0.312573	-0.313446	-0.0184935	2	-0.000752537	5.79671e-06
2	0	0	1	1	21.5925	-0.315572	-0.316446	-0.0188025	2	-0.000753105	5.94996e-06
2	0	0	1	1	21.6225	-0.318571	-0.319434	-0.019098	2	-0.000753682	6.10057e-06
2	0	0	1	1	21.6525	-0.321569	-0.322438	-0.0194039	2	-0.000754268	6.25656e-06
2	0	0	1	1	21.6824	-0.324578	-0.325454	-0.0197496	2	-0.000754862	6.42757e-06
2	0	0	0	1	21.7123	-0.327567	-0.328436	-0.0200462	2	-0.000755465	6.5839e-06
2	0	0	0	1	21.7423	-0.330566	-0.33144	-0.0203529	2	-0.00075608	6.74576e-06
2	0	0	0	1	21.7723	-0.333565	-0.334419	-0.0206608	2	-0.000756703	6.90936e-06
2	0	0	0	1	21.8023	-0.336564	-0.337434	-0.0209692	2	-0.000757336	7.07572e-06
2	0	0	0	1	21.8323	-0.339563	-0.340433	-0.0212953	2	-0.000757978	7.24961e-06
2	0	0	0	1	21.8623	-0.342562	-0.343421	-0.0216075	2	-0.00075863	7.42044e-06
2	0	0	0	1	21.8923	-0.345561	-0.34643	-0.0219293	2	-0.000759292	7.59696e-06
2	0	0	0	1	21.9223	-0.34856	-0.349428	-0.0222439	2	-0.000759962	7.77264e-06
2	0	0	0	1	21.9523	-0.351559	-0.35244	-0.0225693	2	-0.000760643	7.95432e-06
2	0	0	0	1	21.9823	-0.354558	-0.355426	-0.0228795	2	-0.000761333	8.13197e-06
2	0	0	0	1	22.0123	-0.357557	-0.358426	-0.0232091	2	-0.000762033	8.31874e-06
2	0	0	0	1	22.0423	-0.360556	-0.361423	-0.0235519	2	-0.000762743	8.51221e-06
2	0	0	0	1	22.0723	-0.363554	-0.364405	-0.0238538	2	-0.000763463	8.69242e-06
2	0	0	0	1	22.1023	-0.366553	-0.367407	-0.0241917	2	-0.000764192	8.88819e-06
2	0	0	0	1	22.1323	-0.369552	-0.37042	-0.0245602	2	-0.000764932	9.09758e-06
2	0	0	0	1	22.1623	-0.372551	-0.373397	-0.0248749	2	-0.000765682	9.2882e-06
2	0	0	0	1	22.1923	-0.37555	-0.37642	-0.0252467	2	-0.000766443	9.50338e-06
2	0	0	0	1	22.2223	-0.378549	-0.379401	-0.0255676	2	-0.000767213	9.70038e-06
2	0	0	1	1	22.2521	-0.381548	-0.382421	-0.0259302	2	-0.000767989	9.91625e-06
2	0	0	1	1	22.2821	-0.384547	-0.38541	-0.0262659	2	-0.00076878	1.01231e-05
2	0	0	1	1	22.3121	-0.387546	-0.388409	-0.0266169	2	-0.000769582	1.03382e-05
2	0	0	1	1	22.3421	-0.390545	-0.391396	-0.026948	2	-0.000770394	1.05473e-05
2	0	0	1	1	22.3721	-0.393544	-0.394388	-0.0273442	2	-0.000771216	1.07842e-05
2	0	0	1	1	22.4021	-0.396543	-0.397422	-0.0276693	2	-0.000772049	1.09964e-05
2	0	0	1	1	22.4321	-0.399542	-0.400403	-0.0280084	2	-0.000772892	1.12147e-05
2	0	0	1	1	22.4621	-0.402541	-0.403408	-0.0283302	2	-0.000773746	1.14286e-05
2	0	0	1	1	22.4921	-0.405539	-0.406397	-0.0286749	2	-0.00077461	1.16534e-05
2	0	0	1	1	22.5221	-0.408538	-0.409418	-0.0290508	2	-0.000775484	1.18939e-05
2	0	0	1	1	22.5521	-0.411537	-0.41242	-0.0294059	2	-0.000776368	1.21276e-05
2	0	0	1	1	22.5821	-0.414536	-0.415417	-0.0296722	2	-0.000777263	1.23263e-05
2	0	0	1	1	22.6121	-0.417535	-0.418415	-0.0300464	2	-0.000778167	1.25718e-05
2	0	0	1	1	22.6421	-0.420534	-0.421402	-0.0303874	2	-0.000779082	1.28053e-05
2	0	0	1	1	22.6721	-0.423533	-0.424411	-0.0307119	2	-0.000780006	1.30345e-05
2	0	0	1	1	22.7021	-0.426532	-0.427419	-0.0310242	2	-0.00078094	1.32604e-05
2	0	0	1	1	22.7321	-0.429531	-0.430404	-0.0313629	2	-0.000781884	1.34987e-05
2	0	0	1	1	22.7621	-0.43253	-0.433411	-0.0316797	2	-0.000782837	1.37303e-05
2	0	0	1	1	22.7921	-0.435529	-0.436402	-0.031923	2	-0.000783799	1.39313e-05
2	0	0	0	1	22.8219	-0.438528	-0.439417	-0.03227	2	-0.000784765	1.418e-05
2	0	0	0	1	22.8519	-0.441527	-0.442394	-0.0325688	2	-0.000785746	1.44082e-05
2	0	0	0	1	22.8819	-0.444526	-0.445395	-0.0328246	2	-0.000786736	1.46199e-05
2	0	0	0	1	22.9119	-0.447524	-0.448395	-0.0331809	2	-0.000787735	1.48781e-05
2	0	0	0	1	22.9419	-0.450523	-0.451383	-0.0334204	2	-0.000788742	1.50854e-05
2	0	0	0	1	22.9719	-0.453522	-0.454379	-0.0337379	2	-0.000789759	1.53298e-05
2	0	0	0	1	23.0019	-0.456521	-0.457399	-0.0340532	2	-0.000790783	1.55759e-05
2	0	0	0	1	23.0319	-0.45952	-0.46038	-0.0342839	2	-0.000791817	1.57836e-05
2	0	0	0	1	23.0619	-0.462519	-0.463392	-0.0345911	2	-0.000792858	1.60292e-05
2	0	0	0	1	23.0919	-0.465518	-0.466382	-0.0348859	2	-0.000793908	1.62702e-05
2	0	0	0	1	23.1219	-0.468517	-0.46938	-0.0351242	2	-0.000794966	1.64866e-05
2	0	0	0	1	23.1519	-0.471516	-0.472384	-0.0353992	2	-0.000796032	1.6722e-05
2	0	0	0	1	23.1819	-0.474515	-0.475388	-0.0356623	2	-0.000797106	1.69535e-05
2	0	0	0	1	23.2119	-0.477514	-0.478394	-0.035957	2	-0.000798188	1.72016e-05
2	0	0	0	1	23.2419	-0.480513	-0.481374	-0.0361693	2	-0.000799278	1.74109e-05
2	0	0	0	1	23.2719	-0.483512	-0.484403	-0.0364459	2	-0.000800375	1.76545e-05
2	0	0	0	1	23.3019	-0.486511	-0.487395	-0.0366982	2	-0.00080148	1.78865e-05
2	0	0	0	1	23.3319	-0.489509	-0.490376	-0.0369615	2	-0.000802593	1.8125e-05
2	0	0	0	1	23.3618	-0.492517	-0.49338	-0.0372659	2	-0.00080371	1.83863e-05
2	0	0	1	1	23.3917	-0.495507	-0.496367	-0.0374606	2	-0.000804835	1.85942e-05
2	0	0	1	1	23.4217	-0.498506	-0.499397	-0.0377234	2	-0.000805971	1.88389e-05
2	0	0	1	1	23.4517	-0.501505	-0.502376	-0.037959	2	-0.000807115	1.90697e-05
2	0	0	1	1	23.4817	-0.504504	-0.505367	-0.0382298	2	-0.000808266	1.93201e-05
2	0	0	1	1	23.5117	-0.507503	-0.508384	-0.0384906	2	-0.000809424	1.9568e-05
2	0	0	1	1	23.5417	-0.510502	-0.511391	-0.0387499	2	-0.000810591	1.98164e-05
2	0	0	1	1	23.5717	-0.513501	-0.514385	-0.0389909	2	-0.000811765	2.00563e-05
2	0	0	1	1	23.6017	-0.5165	-0.517395	-0.0392568	2	-0.000812946	2.03113e-05
2	0	0	1	1	23.6317	-0.519499	-0.520369	-0.0394954	2	-0.000814135	2.05522e-05
2	0	0	1	1	23.6617	-0.522498	-0.523369	-0.0397484	2	-0.000815332	2.08031e-05
2	0	0	1	1	23.6917	-0.525497	-0.52638	-0.0399851	2	-0.000816537	2.10473e-05
2	0	0	1	1	23.7217	-0.528496	-0.529374	-0.0402502	2	-0.000817749	2.13074e-05
2	0	0	1	1	23.7517	-0.531494	-0.532378	-0.0405599	2	-0.00081897	2.15932e-05
2	0	0	1	1	23.7817	-0.534493	-0.535381	-0.0408141	2	-0.000820198	2.18511e-05
2	0	0	1	1	23.8117	-0.537492	-0.538368	-0.0410487	2	-0.000821434	2.20993e-05
2	0	0	1	1	23.8417	-0.540491	-0.541368	-0.041347	2	-0.000822678	2.2384e-05
2	0	0	1	1	23.8717	-0.54349	-0.544373	-0.0416293	2	-0.00082393	2.26619e-05
2	0	0	1	1	23.9017	-0.546489	-0.547355	-0.0418893	2	-0.00082519	2.29283e-05
2	0	0	0	1	23.9315	-0.549488	-0.550374	-0.042151	2	-0.00082645	2.31988e-05
2	0	0	0	1	23.9615	-0.552487	-0.553368	-0.0424281	2	-0.000827727	2.34784e-05
2	0	0	0	1	23.9915	-0.555486	-0.556356	-0.042722	2	-0.000829013	2.37686e-05
2	0	0	0	1	24.0215	-0.558485	-0.559365	-0.0429861	2	-0.000830307	2.40449e-05
2	0	0	0	1	24.0515	-0.561484	-0.562361	-0.0432858	2	-0.000831609	2.43422e-05
2	0	0	0	1	24.0815	-0.564483	-0.565353	-0.0435789	2	-0.000832921	2.46375e-05
2	0	0	0	1	24.1115	-0.567482	-0.568364	-0.0439063	2	-0.000834241	2.49547e-05
2	0	0	0	1	24.1415	-0.570481	-0.571354	-0.044202	2	-0.000835569	2.5255e-05
2	0	0	0	1	24.1715	-0.57348	-0.574344	-0.0444531	2	-0.000836907	2.55314e-05
2	0	0	0	1	24.2015	-0.576478	-0.577341	-0.0447713	2	-0.000838254	2.58483e-05
2	0	0	0	1	24.2315	-0.579477	-0.580349	-0.0450789	2	-0.00083961	2.61615e-05
2	0	0	0	1	24.2615	-0.582476	-0.58336	-0.045397	2	-0.000840976	2.64828e-05
2	0	0	0	1	24.2915	-0.585475	-0.586361	-0.045732	2	-0.00084235	2.68155e-05
2	0	0	0	1	24.3215	-0.588474	-0.589358	-0.0460261	2	-0.000843735	2.71259e-05
2	0	0	0	1	24.3515	-0.591473	-0.592341	-0.0463657	2	-0.000845128	2.74643e-05
2	0	0	0	1	24.3815	-0.594472	-0.595336	-0.0466529	2	-0.000846531	2.77742e-05
2	0	0	0	1	24.4115	-0.597471	-0.598336	-0.0470129	2	-0.000847944	2.81295e-05
2	0	0	0	1	24.4415	-0.60047	-0.601343	-0.0473259	2	-0.000849367	2.84591e-05
2	0	0	0	1	24.4715	-0.603469	-0.604359	-0.0476724	2	-0.0008508	2.88112e-05
2	0	0	1	1	24.5013	-0.606468	-0.607328	-0.0479741	2	-0.000852234	2.9136e-05
2	0	0	1	1	24.5313	-0.609467	-0.610322	-0.0483327	2	-0.000853687	2.94985e-05
2	0	0	1	1	24.5613	-0.612466	-0.613334	-0.0486952	2	-0.00085515	2.98664e-05
2	0	0	1	1	24.5913	-0.615464	-0.61634	-0.0490206	2	-0.000856624	3.02134e-05
2	0	0	1	1	24.6213	-0.618463	-0.61933	-0.0493842	2	-0.000858108	3.05851e-05
2	0	0	1	1	24.6513	-0.621462	-0.622328	-0.049707	2	-0.000859603	3.0934e-05
2	0	0	1	1	24.6813	-0.624461	-0.625334	-0.0501067	2	-0.000861108	3.13334e-05
2	0	0	1	1	24.7113	-0.62746	-0.628321	-0.0504506	2	-0.000862625	3.16992e-05
2	0	0	1	1	24.7413	-0.630459	-0.631342	-0.0508528	2	-0.000864152	3.21055e-05
2	0	0	1	1	24.7713	-0.633458	-0.634331	-0.0512058	2	-0.000865691	3.24814e-05
2	0	0	1	1	24.8013	-0.636457	-0.63733	-0.0515856	2	-0.000867242	3.28771e-05
2	0	0	1	1	24.8313	-0.639456	-0.640332	-0.05199	2	-0.000868804	3.32908e-05
2	0	0	1	1	24.8613	-0.642455	-0.64332	-0.0524053	2	-0.000870378	3.37134e-05
2	0	0	1	1	24.8913	-0.645454	-0.646321	-0.0527819	2	-0.000871964	3.41141e-05
2	0	0	1	1	24.9213	-0.648453	-0.649316	-0.0532605	2	-0.000873562	3.45828e-05
2	0	0	1	1	24.9513	-0.651452	-0.652329	-0.0536708	2	-0.000875173	3.5011e-05
2	0	0	1	1	24.9813	-0.654451	-0.655333	-0.0541039	2	-0.000876798	3.54561e-05
2	0	0	1	1	25.0113	-0.657449	-0.658322	-0.0545281	2	-0.000878435	3.5897e-05
2	0	0	0	1	25.0411	-0.660448	-0.661321	-0.0550291	2	-0.000880075	3.63919e-05
2	0	0	0	1	25.0711	-0.663447	-0.664323	-0.0554701	2	-0.00088174	3.68501e-05
2	0	0	0	1	25.1011	-0.666446	-0.667306	-0.0559252	2	-0.000883419	3.73192e-05
2	0	0	0	1	25.1311	-0.669445	-0.670307	-0.0564264	2	-0.000885113	3.7823e-05
2	0	0	0	1	25.1611	-0.672444	-0.673311	-0.056948	2	-0.000886821	3.83437e-05
2	0	0	0	1	25.1911	-0.675443	-0.676298	-0.0574403	2	-0.000888544	3.88468e-05
2	0	0	0	1	25.2211	-0.678442	-0.679322	-0.0579945	2	-0.000890284	3.9397e-05
2	0	0	0	1	25.2511	-0.681441	-0.682302	-0.0585013	2	-0.000892039	3.99156e-05
2	0	0	0	1	25.2811	-0.68444	-0.685314	-0.0590536	2	-0.00089381	4.04703e-05
2	0	0	0	1	25.3111	-0.687439	-0.688317	-0.0596424	2	-0.000895599	4.10528e-05
2	0	0	0	1	25.3411	-0.690438	-0.691292	-0.0602226	2	-0.000897404	4.16314e-05
2	0	0	0	1	25.3711	-0.693437	-0.694295	-0.0608007	2	-0.000899227	4.22136e-05
2	0	0	0	1	25.4011	-0.696436	-0.697281	-0.0614001	2	-0.000901068	4.28132e-05
2	0	0	0	1	25.4311	-0.699434	-0.700308	-0.0620032	2	-0.000902927	4.34213e-05
2	0	0	0	1	25.4611	-0.702433	-0.703309	-0.0626677	2	-0.000904805	4.40747e-05
2	0	0	0	1	25.4911	-0.705432	-0.706315	-0.0633236	2	-0.000906703	4.47264e-05
2	0	0	0	1	25.5211	-0.708431	-0.709298	-0.0639753	2	-0.000908621	4.53776e-05
2	0	0	0	1	25.5511	-0.71143	-0.7123	-0.0646974	2	-0.000910559	4.6084e-05
2	0	0	0	1	25.5811	-0.714429	-0.715301	-0.0653689	2	-0.000912518	4.67584e-05
2	0	0	1	1	25.6109	-0.717428	-0.718322	-0.066101	2	-0.000914486	4.74818e-05
2	0	0	1	1	25.6409	-0.720427	-0.721313	-0.0668667	2	-0.000916489	4.82318e-05
2	0	0	1	1	25.6709	-0.723426	-0.7243	-0.0676391	2	-0.000918515	4.8991e-05
2	0	0	1	1	25.7009	-0.726425	-0.727306	-0.0683876	2	-0.000920563	4.97388e-05
2	0	0	1	1	25.7309	-0.729424	-0.730306	-0.0692083	2	-0.000922636	5.05433e-05
2	0	0	1	1	25.7609	-0.732423	-0.73331	-0.0700351	2	-0.000924733	5.13574e-05
2	0	0	1	1	25.7909	-0.735422	-0.736289	-0.0709013	2	-0.000926855	5.22038e-05
2	0	0	1	1	25.8209	-0.738421	-0.739308	-0.07174	2	-0.000929003	5.3038e-05
2	0	0	1	1	25.8509	-0.741419	-0.7423	-0.072662	2	-0.000931178	5.3937e-05
2	0	0	1	1	25.8809	-0.744418	-0.745299	-0.0736313	2	-0.00093338	5.48773e-05
2	0	0	1	1	25.9109	-0.747417	-0.748296	-0.0745229	2	-0.000935611	5.57652e-05
2	0	0	1	1	25.9409	-0.750416	-0.751296	-0.0755745	2	-0.000937871	5.67788e-05
2	0	0	1	1	25.9709	-0.753415	-0.754301	-0.0766198	2	-0.00094016	5.77944e-05
2	0	0	1	1	26.0009	-0.756414	-0.757303	-0.0776039	2	-0.000942482	5.87696e-05
2	0	0	1	1	26.0309	-0.759413	-0.760305	-0.0787351	2	-0.000944835	5.98627e-05
2	0	0	1	1	26.0609	-0.762412	-0.763285	-0.0798181	2	-0.00094722	6.09239e-05
2	0	0	1	1	26.0909	-0.765411	-0.766292	-0.0809714	2	-0.00094964	6.20477e-05
2	0	0	1	1	26.1209	-0.76841	-0.769282	-0.0821307	2	-0.000952095	6.31816e-05
2	0	0	1	1	26.1509	-0.771409	-0.772294	-0.0833775	2	-0.000954586	6.4392e-05
2	0	0	0	1	26.1807	-0.774408	-0.775282	-0.0846392	2	-0.000957098	6.56193e-05
2	0	0	0	1	26.2107	-0.777407	-0.778306	-0.085977	2	-0.000959666	6.69164e-05
2	0	0	0	1	26.2407	-0.780405	-0.781305	-0.087277	2	-0.000962272	6.81899e-05
2	0	0	0	1	26.2707	-0.783404	-0.784293	-0.0886866	2	-0.00096492	6.95562e-05
2	0	0	0	1	26.3007	-0.786403	-0.787298	-0.090124	2	-0.00096761	7.09544e-05
2	0	0	0	1	26.3307	-0.789402	-0.790296	-0.0915818	2	-0.000970343	7.23767e-05
2	0	0	0	1	26.3607	-0.792401	-0.793298	-0.0930684	2	-0.000973122	7.38309e-05
2	0	0	0	1	26.3907	-0.7954	-0.796297	-0.0946157	2	-0.000975946	7.53422e-05
2	0	0	0	1	26.4207	-0.798399	-0.799288	-0.0962628	2	-0.000978818	7.69417e-05
2	0	0	0	1	26.4507	-0.801398	-0.802275	-0.0979305	2	-0.000981739	7.85672e-05
2	0	0	0	1	26.4807	-0.804397	-0.805281	-0.0996761	2	-0.000984711	8.02673e-05
2	0	0	0	1	26.5107	-0.807396	-0.808275	-0.10144	2	-0.000987735	8.19918e-05
2	0	0	1	1	26.5717	-0.813494	-0.814336	-0.104746	2	-0.000994021	8.52985e-05
2	0	0	1	1	26.6017	-0.816493	-0.817341	-0.106605	2	-0.000997209	8.71326e-05
2	0	0	1	1	26.6317	-0.819492	-0.820342	-0.108654	2	-0.00100046	8.91334e-05
2	0	0	1	1	26.6617	-0.822491	-0.823341	-0.110709	2	-0.00100376	9.11515e-05
2	0	0	1	1	26.6917	-0.825489	-0.826332	-0.112866	2	-0.00100713	9.32644e-05
2	0	0	0	1	26.7215	-0.828488	-0.829334	-0.115064	2	-0.00101055	9.54263e-05
2	0	0	0	1	26.7515	-0.831487	-0.832342	-0.117371	2	-0.00101405	9.76929e-05
2	0	0	0	1	26.7815	-0.834486	-0.835338	-0.119739	2	-0.00101763	0.000100022
2	0	0	0	1	26.8115	-0.837485	-0.838351	-0.122169	2	-0.00102127	0.00010242
2	0	0	0	1	26.8415	-0.840484	-0.841334	-0.124644	2	-0.00102499	0.000104867
2	0	0	0	1	26.8715	-0.843483	-0.844332	-0.127264	2	-0.00102879	0.000107453
2	0	0	0	1	26.9015	-0.846482	-0.847329	-0.129886	2	-0.00103266	0.000110056
2	0	0	0	1	26.9315	-0.849481	-0.850324	-0.132614	2	-0.00103662	0.000112765
2	0	0	0	1	26.9615	-0.85248	-0.853312	-0.13543	2	-0.00104065	0.000115564
2	0	0	0	1	26.9915	-0.855479	-0.856323	-0.13841	2	-0.00104478	0.000118524
2	0	0	0	1	27.0215	-0.858478	-0.859323	-0.141417	2	-0.001049	0.000121523
2	0	0	0	1	27.0515	-0.861477	-0.862309	-0.144538	2	-0.0010533	0.000124636
2	0	0	0	1	27.0815	-0.864475	-0.865319	-0.147861	2	-0.00105771	0.000127947
2	0	0	0	1	27.1115	-0.867474	-0.868317	-0.151102	2	-0.00106221	0.000131204
2	0	0	0	1	27.1415	-0.870473	-0.871311	-0.154557	2	-0.00106681	0.000134667
2	0	0	0	1	27.1715	-0.873472	-0.87432	-0.158203	2	-0.00107152	0.00013832
2	0	0	0	1	27.2015	-0.876471	-0.877281	-0.161841	2	-0.00107634	0.00014198
2	0	0	0	1	27.2315	-0.87947	-0.880294	-0.165648	2	-0.00108127	0.000145819
2	0	0	0	1	27.2615	-0.882469	-0.883297	-0.169572	2	-0.00108632	0.000149783
2	0	0	1	1	27.2913	-0.885468	-0.886297	-0.173666	2	-0.00109145	0.00015392
2	0	0	1	1	27.3213	-0.888467	-0.889289	-0.177878	2	-0.00109674	0.000158185
2	0	0	1	1	27.3513	-0.891466	-0.892303	-0.182237	2	-0.00110216	0.000162611
2	0	0	1	1	27.3813	-0.894465	-0.895312	-0.186809	2	-0.00110772	0.000167252
2	0	0	1	1	27.4113	-0.897464	-0.898299	-0.191521	2	-0.00111341	0.000172043
2	1	0	0	0	27.4374	-0.900013	-0.900869	-0.195559	2	-0.00111848	0.000176173
2	1	0	1	0	27.4629	-0.897464	-0.898309	-0.186648	2	-0.00112331	0.000167667
2	1	0	1	0	27.4929	-0.894465	-0.895298	-0.179564	2	-0.00112878	0.000160764
2	1	0	1	0	27.5229	-0.891466	-0.89231	-0.173126	2	-0.00113405	0.000154482
2	1	0	1	0	27.5529	-0.888467	-0.889312	-0.167289	2	-0.00113914	0.000148772
2	1	0	1	0	27.5829	-0.885468	-0.886293	-0.161739	2	-0.00114406	0.000143348
2	1	0	0	0	27.6127	-0.882469	-0.88331	-0.156492	2	-0.00114878	0.000138231
2	1	0	0	0	27.6427	-0.87947	-0.880297	-0.151432	2	-0.00115338	0.000133305
2	1	0	0	0	27.6727	-0.876471	-0.877295	-0.146591	2	-0.00115783	0.000128603
2	1	0	0	0	27.7027	-0.873472	-0.87431	-0.14187	2	-0.00116214	0.000124039
2	1	0	0	0	27.7327	-0.870473	-0.871307	-0.137584	2	-0.00116631	0.000119878
2	1	0	0	0	27.7627	-0.867474	-0.868297	-0.133304	2	-0.00117035	0.000115748
2	1	0	0	0	27.7927	-0.864475	-0.865312	-0.12916	2	-0.00117427	0.000111763
2	1	0	0	0	27.8227	-0.861476	-0.862323	-0.12523	2	-0.00117807	0.000107989
2	1	0	0	0	27.8527	-0.858478	-0.859305	-0.121453	2	-0.00118175	0.000104365
2	1	0	0	0	27.8827	-0.855479	-0.856305	-0.117759	2	-0.00118532	0.000100837
2	1	0	0	0	27.9127	-0.85248	-0.853291	-0.114298	2	-0.00118878	9.75299e-05
2	1	0	0	0	27.9427	-0.849481	-0.850317	-0.110904	2	-0.00119214	9.43039e-05
2	1	0	0	0	27.9727	-0.846482	-0.847313	-0.107552	2	-0.0011954	9.113e-05
2	1	0	0	0	28.0027	-0.843483	-0.844313	-0.10449	2	-0.00119856	8.82225e-05
2	1	0	0	0	28.0327	-0.840484	-0.841317	-0.101445	2	-0.00120163	8.53472e-05
2	1	0	0	0	28.0627	-0.837485	-0.838312	-0.0984732	2	-0.00120461	8.25513e-05
2	1	0	0	0	28.0927	-0.834486	-0.835343	-0.0957036	2	-0.00120751	7.99454e-05
2	1	0	0	0	28.1227	-0.831487	-0.832307	-0.0928956	2	-0.00121032	7.73176e-05
2	1	0	0	0	28.1526	-0.828497	-0.829319	-0.0903223	2	-0.00121304	7.49061e-05
2	1	0	1	0	28.1825	-0.825489	-0.826319	-0.0877669	2	-0.00121568	7.25235e-05
2	1	0	1	0	28.2125	-0.82249	-0.82333	-0.0852574	2	-0.00121826	7.01949e-05
2	1	0	1	0	28.2425	-0.819492	-0.82035	-0.0830032	2	-0.00122076	6.80917e-05
2	1	0	1	0	28.2725	-0.816493	-0.817325	-0.0806428	2	-0.0012232	6.59114e-05
2	1	0	1	0	28.3025	-0.813494	-0.814326	-0.0784111	2	-0.00122557	6.38521e-05
2	1	0	1	0	28.3325	-0.810495	-0.811315	-0.0762621	2	-0.00122787	6.18726e-05
2	1	0	1	0	28.3625	-0.807496	-0.808318	-0.0742751	2	-0.00123011	6.00379e-05
2	1	0	1	0	28.3925	-0.804497	-0.80532	-0.0722662	2	-0.00123229	5.81974e-05
2	1	0	1	0	28.4225	-0.801498	-0.802332	-0.0703443	2	-0.00123441	5.64395e-05
2	1	0	1	0	28.4525	-0.798499	-0.799336	-0.0685095	2	-0.00123648	5.47621e-05
2	1	0	1	0	28.4825	-0.7955	-0.796319	-0.0667396	2	-0.00123849	5.3146e-05
2	1	0	1	0	28.5125	-0.792501	-0.793325	-0.0649419	2	-0.00124044	5.15201e-05
2	1	0	1	0	28.5425	-0.789502	-0.790337	-0.0633156	2	-0.00124235	5.00406e-05
2	1	0	1	0	28.5725	-0.786503	-0.787319	-0.0616529	2	-0.00124421	4.85405e-05
2	1	0	1	0	28.6025	-0.783504	-0.784348	-0.0601414	2	-0.00124602	4.71718e-05
2	1	0	1	0	28.6325	-0.780505	-0.78134	-0.0587018	2	-0.00124778	4.5866e-05
2	1	0	1	0	28.6625	-0.777507	-0.778345	-0.057149	2	-0.0012495	4.44816e-05
2	1	0	1	0	28.6925	-0.774508	-0.775335	-0.0557878	2	-0.00125117	4.32542e-05
2	1	0	0	0	28.7223	-0.771509	-0.772343	-0.0543908	2	-0.0012528	4.20084e-05
2	1	0	0	0	28.7523	-0.76851	-0.769351	-0.0530706	2	-0.00125439	4.08299e-05
2	1	0	0	0	28.7823	-0.765511	-0.766345	-0.0518436	2	-0.00125595	3.97301e-05
2	1	0	0	0	28.8123	-0.762512	-0.763343	-0.0505927	2	-0.00125746	3.86196e-05
2	1	0	0	0	28.8423	-0.759513	-0.760358	-0.0494593	2	-0.00125895	3.76068e-05
2	1	0	0	0	28.9023	-0.753515	-0.754341	-0.0470189	2	-0.00126183	3.54683e-05
2	1	0	0	0	28.9323	-0.750516	-0.751341	-0.0459549	2	-0.00126322	3.45278e-05
2	1	0	0	0	28.9623	-0.747517	-0.748349	-0.0449187	2	-0.00126458	3.36148e-05
2	1	0	0	0	28.9923	-0.744518	-0.745346	-0.0439164	2	-0.0012659	3.27329e-05
2	1	0	0	0	29.0223	-0.741519	-0.742343	-0.0429321	2	-0.0012672	3.18704e-05
2	1	0	0	0	29.0523	-0.738521	-0.739351	-0.042034	2	-0.00126846	3.10778e-05
2	1	0	0	0	29.0823	-0.735522	-0.736345	-0.0411272	2	-0.0012697	3.02838e-05
2	1	0	0	0	29.1123	-0.732523	-0.733344	-0.040257	2	-0.00127091	2.95222e-05
2	1	0	0	0	29.1423	-0.729524	-0.730344	-0.0394198	2	-0.0012721	2.879e-05
2	1	0	0	0	29.1723	-0.726525	-0.727343	-0.0386079	2	-0.00127326	2.80812e-05
2	1	0	0	0	29.2023	-0.723526	-0.724344	-0.0377819	2	-0.0012744	2.73671e-05
2	1	0	0	0	29.2323	-0.720527	-0.721371	-0.0370279	2	-0.00127551	2.67109e-05
2	1	0	0	0	29.2623	-0.717528	-0.718356	-0.0362743	2	-0.00127661	2.60578e-05
2	1	0	1	0	29.2921	-0.714529	-0.715342	-0.0355385	2	-0.00127767	2.54222e-05
2	1	0	1	0	29.3221	-0.71153	-0.712344	-0.0348553	2	-0.00127871	2.48289e-05
2	1	0	1	0	29.3521	-0.708531	-0.70936	-0.0341542	2	-0.00127974	2.42276e-05
2	1	0	1	0	29.3821	-0.705532	-0.706358	-0.0335181	2	-0.00128075	2.36758e-05
2	1	0	1	0	29.4121	-0.702533	-0.703352	-0.0328503	2	-0.00128174	2.31053e-05
2	1	0	1	0	29.4421	-0.699534	-0.700359	-0.0322896	2	-0.00128271	2.26143e-05
2	1	0	1	0	29.4721	-0.696536	-0.697351	-0.0316331	2	-0.00128366	2.20594e-05
2	1	0	1	0	29.5021	-0.693537	-0.694375	-0.0310965	2	-0.00128459	2.15926e-05
2	1	0	1	0	29.5321	-0.690538	-0.691363	-0.0304892	2	-0.0012855	2.10791e-05
2	1	0	1	0	29.5621	-0.687539	-0.688365	-0.029918	2	-0.0012864	2.05945e-05
2	1	0	1	0	29.5921	-0.68454	-0.685375	-0.029394	2	-0.00128729	2.01459e-05
2	1	0	1	0	29.6221	-0.681541	-0.682388	-0.0288639	2	-0.00128815	1.96964e-05
2	1	0	1	0	29.6521	-0.678542	-0.679371	-0.02835	2	-0.001289	1.92601e-05
2	1	0	1	0	29.6821	-0.675543	-0.67637	-0.0278591	2	-0.00128984	1.88431e-05
2	1	0	1	0	29.7121	-0.672544	-0.673373	-0.0273993	2	-0.00129066	1.84499e-05
2	1	0	1	0	29.7421	-0.669545	-0.670365	-0.0268969	2	-0.00129146	1.80307e-05
2	1	0	1	0	29.7721	-0.666546	-0.667374	-0.0264094	2	-0.00129225	1.76249e-05
2	1	0	1	0	29.8021	-0.663547	-0.664386	-0.0259834	2	-0.00129303	1.7263e-05
2	1	0	1	0	29.8321	-0.660548	-0.661384	-0.0254983	2	-0.0012938	1.68642e-05
2	1	0	0	0	29.8619	-0.657549	-0.658362	-0.0250771	2	-0.00129454	1.65098e-05
2	1	0	0	0	29.8919	-0.654551	-0.655373	-0.0245996	2	-0.00129528	1.61219e-05
2	1	0	0	0	29.9219	-0.651552	-0.65237	-0.0241926	2	-0.001296	1.57825e-05
2	1	0	0	0	29.9519	-0.648553	-0.649357	-0.0237996	2	-0.00129672	1.54544e-05
2	1	0	0	0	29.9819	-0.645554	-0.646377	-0.0234292	2	-0.00129742	1.51441e-05
2	1	0	0	0	30.0119	-0.642555	-0.643383	-0.0230054	2	-0.0012981	1.48013e-05
2	1	0	0	0	30.0419	-0.639556	-0.640394	-0.0226442	2	-0.00129878	1.45012e-05
2	1	0	0	0	30.0719	-0.636557	-0.637388	-0.0222332	2	-0.00129945	1.41712e-05
2	1	0	0	0	30.1019	-0.633558	-0.634388	-0.0218538	2	-0.0013001	1.38638e-05
2	1	0	0	0	30.1319	-0.630559	-0.631399	-0.0215354	2	-0.00130074	1.35974e-05
2	1	0	0	0	30.1619	-0.62756	-0.628401	-0.0211965	2	-0.00130138	1.33199e-05
2	1	0	0	0	30.1919	-0.624561	-0.625378	-0.0208041	2	-0.001302	1.30104e-05
2	1	0	0	0	30.2219	-0.621562	-0.62238	-0.0204615	2	-0.00130261	1.27348e-05
2	1	0	0	0	30.2519	-0.618563	-0.619395	-0.0201387	2	-0.00130321	1.24738e-05
2	1	0	0	0	30.2819	-0.615564	-0.616396	-0.0198419	2	-0.0013038	1.22305e-05
2	1	0	0	0	30.3119	-0.612565	-0.613391	-0.0194488	2	-0.00130438	1.19297e-05
2	1	0	0	0	30.3419	-0.609567	-0.610379	-0.0191398	2	-0.00130495	1.16825e-05
2	1	0	0	0	30.3719	-0.606568	-0.607394	-0.0188876	2	-0.00130551	1.14722e-05
2	1	0	1	0	30.4017	-0.603569	-0.604395	-0.0185447	2	-0.00130606	1.12083e-05
2	1	0	1	0	30.4317	-0.60057	-0.601394	-0.0182294	2	-0.00130661	1.0963e-05
2	1	0	1	0	30.4617	-0.597571	-0.598392	-0.0179535	2	-0.00130714	1.07432e-05
2	1	0	1	0	30.4917	-0.594572	-0.595396	-0.0176484	2	-0.00130767	1.05078e-05
2	1	0	1	0	30.5217	-0.591573	-0.592405	-0.0173781	2	-0.00130818	1.02949e-05
2	1	0	1	0	30.5517	-0.588574	-0.589403	-0.0171119	2	-0.00130869	1.00858e-05
2	1	0	1	0	30.5817	-0.585575	-0.586404	-0.0167974	2	-0.00130919	9.85006e-06
2	1	0	1	0	30.6117	-0.582576	-0.583408	-0.0165213	2	-0.00130968	9.63867e-06
2	1	0	1	0	30.6417	-0.579577	-0.580422	-0.0162923	2	-0.00131017	9.45641e-06
2	1	0	1	0	30.6717	-0.576578	-0.577418	-0.0160094	2	-0.00131065	9.2441e-06
2	1	0	1	0	30.7017	-0.573579	-0.574406	-0.0157512	2	-0.00131111	9.04756e-06
2	1	0	1	0	30.7317	-0.570581	-0.571403	-0.0154986	2	-0.00131157	8.85596e-06
2	1	0	1	0	30.7617	-0.567582	-0.568385	-0.0152451	2	-0.00131203	8.66507e-06
2	1	0	1	0	30.7917	-0.564583	-0.565412	-0.0149587	2	-0.00131247	8.45785e-06
2	1	0	1	0	30.8217	-0.561584	-0.562411	-0.0147524	2	-0.00131291	8.29689e-06
2	1	0	1	0	30.8517	-0.558585	-0.559411	-0.0145162	2	-0.00131334	8.1205e-06
2	1	0	1	0	30.8817	-0.555586	-0.55641	-0.0142835	2	-0.00131377	7.94747e-06
2	1	0	1	0	30.9117	-0.552587	-0.553404	-0.0140388	2	-0.00131418	7.76913e-06
2	1	0	1	0	30.9417	-0.549588	-0.550409	-0.0138087	2	-0.00131459	7.60043e-06
2	1	0	0	0	30.9715	-0.546589	-0.547419	-0.0135551	2	-0.00131499	7.4203e-06
2	1	0	0	0	31.0015	-0.54359	-0.544416	-0.0133641	2	-0.00131539	7.27566e-06
2	1	0	0	0	31.0315	-0.540591	-0.541396	-0.0131097	2	-0.00131577	7.09754e-06
2	1	0	0	0	31.0615	-0.537592	-0.538401	-0.0128563	2	-0.00131616	6.92184e-06
2	1	0	0	0	31.0915	-0.534593	-0.535406	-0.0126444	2	-0.00131653	6.76988e-06
2	1	0	0	0	31.1215	-0.531594	-0.532412	-0.0124103	2	-0.0013169	6.60737e-06
2	1	0	0	0	31.1515	-0.528596	-0.529422	-0.0122312	2	-0.00131726	6.47547e-06
2	1	0	0	0	31.1815	-0.525597	-0.526431	-0.0119474	2	-0.00131762	6.28946e-06
2	1	0	0	0	31.2115	-0.522598	-0.523404	-0.0117389	2	-0.00131796	6.14416e-06
2	1	0	0	0	31.2415	-0.519599	-0.520415	-0.0115693	2	-0.00131831	6.02083e-06
2	1	0	0	0	31.2715	-0.5166	-0.51741	-0.0113249	2	-0.00131864	5.85962e-06
2	1	0	0	0	31.3015	-0.513601	-0.514436	-0.011081	2	-0.00131897	5.70045e-06
2	1	0	0	0	31.3315	-0.510602	-0.511421	-0.0108806	2	-0.00131929	5.56455e-06
2	1	0	0	0	31.3615	-0.507603	-0.508427	-0.0106541	2	-0.00131961	5.41682e-06
2	1	0	0	0	31.3915	-0.504604	-0.505418	-0.0104302	2	-0.00131991	5.27159e-06
2	1	0	0	0	31.4215	-0.501605	-0.502414	-0.0102085	2	-0.00132022	5.12887e-06
2	1	0	0	0	31.4515	-0.498606	-0.499431	-0.0100389	2	-0.00132051	5.01374e-06
2	1	0	0	0	31.4815	-0.495607	-0.496412	-0.00981373	2	-0.0013208	4.87165e-06
2	1	0	0	0	31.5114	-0.492617	-0.493413	-0.00951813	2	-0.00132108	4.69637e-06
2	1	0	1	0	31.5413	-0.489609	-0.490425	-0.00932936	2	-0.00132136	4.57535e-06
2	1	0	1	0	31.5713	-0.48661	-0.487415	-0.00913742	2	-0.00132163	4.45371e-06
2	1	0	1	0	31.6013	-0.483612	-0.484412	-0.00892023	2	-0.00132189	4.32107e-06
2	1	0	1	0	31.6313	-0.480613	-0.481417	-0.00871107	2	-0.00132214	4.19366e-06
2	1	0	1	0	31.6613	-0.477614	-0.478428	-0.00847687	2	-0.00132239	4.05557e-06
2	1	0	1	0	31.6913	-0.474615	-0.475421	-0.00821678	2	-0.00132263	3.90643e-06
2	1	0	1	0	31.7213	-0.471616	-0.472411	-0.00799087	2	-0.00132287	3.77498e-06
2	1	0	1	0	31.7513	-0.468617	-0.469418	-0.00780201	2	-0.0013231	3.66241e-06
2	1	0	1	0	31.7813	-0.465618	-0.466423	-0.00759222	2	-0.00132332	3.54119e-06
2	1	0	1	0	31.8113	-0.462619	-0.463412	-0.00732348	2	-0.00132354	3.39379e-06
2	1	0	1	0	31.8413	-0.45962	-0.460421	-0.0070719	2	-0.00132374	3.25605e-06
2	1	0	1	0	31.8713	-0.456621	-0.457436	-0.00685121	2	-0.00132395	3.13399e-06
2	1	0	1	0	31.9013	-0.453622	-0.454414	-0.00665272	2	-0.00132414	3.02309e-06
2	1	0	1	0	31.9313	-0.450623	-0.451433	-0.00641671	2	-0.00132433	2.89671e-06
2	1	0	1	0	31.9613	-0.447624	-0.448428	-0.00618188	2	-0.00132451	2.77213e-06
2	1	0	1	0	31.9913	-0.444626	-0.445425	-0.0059529	2	-0.00132468	2.65157e-06
2	1	0	1	0	32.0213	-0.441627	-0.442423	-0.00569996	2	-0.00132485	2.52179e-06
2	1	0	1	0	32.0513	-0.438628	-0.439431	-0.00542777	2	-0.001325	2.38513e-06
2	1	0	0	0	32.0811	-0.435629	-0.436426	-0.00517615	2	-0.00132515	2.25901e-06
2	1	0	1	0	32.1421	-0.429531	-0.430345	-0.0044555	2	-0.00132544	1.9174e-06
2	1	0	1	0	32.1721	-0.426532	-0.427321	-0.00420376	2	-0.00132557	1.79635e-06
2	1	0	1	0	32.2021	-0.423533	-0.424337	-0.00395014	2	-0.00132569	1.67619e-06
2	1	0	1	0	32.2321	-0.420534	-0.421325	-0.00371951	2	-0.0013258	1.56712e-06
2	1	0	1	0	32.2621	-0.417535	-0.418337	-0.0034539	2	-0.00132591	1.4449e-06
2	1	0	1	0	32.2921	-0.414536	-0.415325	-0.00322401	2	-0.00132601	1.33901e-06
2	1	0	1	0	32.3221	-0.411537	-0.412324	-0.0029607	2	-0.0013261	1.22077e-06
2	1	0	1	0	32.3521	-0.408538	-0.409348	-0.00271602	2	-0.00132619	1.11179e-06
2	1	0	1	0	32.3821	-0.405539	-0.406336	-0.0024498	2	-0.00132626	9.95445e-07
2	1	0	1	0	32.4121	-0.402541	-0.403326	-0.00221277	2	-0.00132633	8.92469e-07
2	1	0	1	0	32.4421	-0.399542	-0.400317	-0.00195138	2	-0.0013264	7.81171e-07
2	1	0	1	0	32.4721	-0.396543	-0.397327	-0.00172152	2	-0.00132645	6.84007e-07
2	1	0	1	0	32.5021	-0.393544	-0.39432	-0.0014561	2	-0.0013265	5.74168e-07
2	1	0	1	0	32.5321	-0.390545	-0.391315	-0.00120763	2	-0.00132654	4.72562e-07
2	1	0	1	0	32.5621	-0.387546	-0.388323	-0.000961819	2	-0.00132657	3.73496e-07
2	1	0	1	0	32.5921	-0.384547	-0.385311	-0.000707837	2	-0.00132659	2.72738e-07
2	1	0	1	0	32.6221	-0.381548	-0.382341	-0.000460394	2	-0.00132661	1.76027e-07
2	1	0	0	0	32.6519	-0.378549	-0.379311	-0.00020203	2	-0.00132662	7.66321e-08
2	1	0	0	0	32.6819	-0.37555	-0.376329	1.88437e-05	2	-0.00132662	7.09143e-09
2	1	0	0	0	32.7119	-0.372551	-0.37334	0.00027722	2	-0.00132662	1.03497e-07
2	1	0	0	0	32.7419	-0.369552	-0.370335	0.000523061	2	-0.00132661	1.93708e-07
2	1	0	0	0	32.7719	-0.366553	-0.367318	0.000748015	2	-0.00132659	2.7476e-07
2	1	0	0	0	32.8019	-0.363554	-0.364326	0.000975922	2	-0.00132656	3.55554e-07
2	1	0	0	0	32.8319	-0.360556	-0.361342	0.00122919	2	-0.00132653	4.44159e-07
2	1	0	0	0	32.8619	-0.357557	-0.358337	0.0014654	2	-0.00132649	5.25108e-07
2	1	0	0	0	32.8919	-0.354558	-0.35534	0.00172536	2	-0.00132644	6.13087e-07
2	1	0	0	0	32.9219	-0.351559	-0.352331	0.00194284	2	-0.00132638	6.84522e-07
2	1	0	0	0	32.9519	-0.34856	-0.349336	0.00218117	2	-0.00132632	7.61961e-07
2	1	0	0	0	32.9819	-0.345561	-0.34634	0.00241535	2	-0.00132625	8.36531e-07
2	1	0	0	0	33.0119	-0.342562	-0.343325	0.0026575	2	-0.00132618	9.12388e-07
2	1	0	0	0	33.0419	-0.339563	-0.340323	0.00289013	2	-0.00132609	9.83577e-07
2	1	0	0	0	33.0719	-0.336564	-0.337318	0.00312689	2	-0.001326	1.05476e-06
2	1	0	0	0	33.1019	-0.333565	-0.334336	0.00336098	2	-0.0013259	1.1237e-06
2	1	0	0	0	33.1319	-0.330566	-0.33134	0.00358707	2	-0.0013258	1.18854e-06
2	1	0	0	0	33.1619	-0.327567	-0.328331	0.00383819	2	-0.00132569	1.2602e-06
2	1	0	0	0	33.1918	-0.324575	-0.325352	0.00405457	2	-0.00132557	1.31916e-06
2	1	0	1	0	33.2217	-0.321569	-0.322342	0.00430745	2	-0.00132544	1.38848e-06
2	1	0	1	0	33.2517	-0.318571	-0.319325	0.00454379	2	-0.00132531	1.45094e-06
2	1	0	1	0	33.2817	-0.315572	-0.316332	0.00477131	2	-0.00132517	1.50932e-06
2	1	0	1	0	33.3117	-0.312573	-0.313329	0.00503366	2	-0.00132502	1.57719e-06
2	1	0	1	0	33.3417	-0.309574	-0.31034	0.00526877	2	-0.00132487	1.63511e-06
2	1	0	1	0	33.3717	-0.306575	-0.307351	0.00550624	2	-0.00132471	1.69235e-06
2	1	0	1	0	33.4017	-0.303576	-0.304326	0.00577001	2	-0.00132454	1.75596e-06
2	1	0	1	0	33.4317	-0.300577	-0.301336	0.00601268	2	-0.00132436	1.81184e-06
2	1	0	1	0	33.4617	-0.297578	-0.298346	0.00626831	2	-0.00132418	1.87013e-06
2	1	0	1	0	33.4917	-0.294579	-0.29533	0.00651723	2	-0.00132398	1.92473e-06
2	1	0	1	0	33.5217	-0.29158	-0.29233	0.0067959	2	-0.00132378	1.98665e-06
2	1	0	1	0	33.5517	-0.288581	-0.289317	0.00706487	2	-0.00132358	2.04399e-06
2	1	0	1	0	33.5817	-0.285582	-0.286336	0.00734248	2	-0.00132336	2.10241e-06
2	1	0	1	0	33.6117	-0.282583	-0.28334	0.00761959	2	-0.00132313	2.15894e-06
2	1	0	1	0	33.6417	-0.279585	-0.280348	0.00790162	2	-0.0013229	2.21521e-06
2	1	0	1	0	33.6717	-0.276586	-0.277334	0.00820243	2	-0.00132266	2.27481e-06
2	1	0	1	0	33.7017	-0.273587	-0.274342	0.0084652	2	-0.00132241	2.32236e-06
2	1	0	1	0	33.7317	-0.270588	-0.271357	0.00877738	2	-0.00132215	2.3818e-06
2	1	0	0	0	33.7615	-0.267589	-0.268336	0.00909563	2	-0.00132188	2.44068e-06
2	1	0	0	0	33.7915	-0.26459	-0.265343	0.00939449	2	-0.00132161	2.49276e-06
2	1	0	0	0	33.8215	-0.261591	-0.262335	0.00970388	2	-0.00132132	2.54567e-06
2	1	0	0	0	33.8515	-0.258592	-0.259366	0.0100082	2	-0.00132102	2.59578e-06
2	1	0	0	0	33.897	-0.254044	-0.254822	0.0103499	2	-0.00132056	2.63739e-06
2	1	0	1	0	33.9425	-0.249495	-0.250273	0.0107429	2	-0.00132007	2.68865e-06
2	1	0	1	0	33.9725	-0.246496	-0.2473	0.0110705	2	-0.00131974	2.73773e-06
2	1	0	1	0	34.0025	-0.243497	-0.244296	0.0114378	2	-0.00131939	2.79421e-06
2	1	0	1	0	34.0325	-0.240498	-0.241275	0.0117667	2	-0.00131903	2.839e-06
2	1	0	1	0	34.0625	-0.2375	-0.238265	0.0121013	2	-0.00131867	2.88331e-06
2	1	0	1	0	34.0925	-0.234501	-0.235296	0.012443	2	-0.00131829	2.92778e-06
2	1	0	1	0	34.1225	-0.231502	-0.232275	0.0128115	2	-0.0013179	2.97579e-06
2	1	0	1	0	34.1525	-0.228503	-0.229289	0.0130845	2	-0.00131751	3.00012e-06
2	1	0	1	0	34.1825	-0.225504	-0.226282	0.0134812	2	-0.0013171	3.05055e-06
2	1	0	1	0	34.2125	-0.222505	-0.223293	0.0137998	2	-0.00131668	3.0814e-06
2	1	0	1	0	34.2425	-0.219506	-0.220298	0.014177	2	-0.00131625	3.12316e-06
2	1	0	1	0	34.2725	-0.216507	-0.2173	0.0145674	2	-0.00131581	3.1655e-06
2	1	0	1	0	34.3025	-0.213508	-0.21429	0.0148994	2	-0.00131536	3.19281e-06
2	1	0	0	0	34.3323	-0.210509	-0.211287	0.0152604	2	-0.00131491	3.22433e-06
2	1	0	0	0	34.3623	-0.20751	-0.208289	0.0156157	2	-0.00131444	3.25257e-06
2	1	0	0	0	34.3923	-0.204511	-0.205306	0.0159692	2	-0.00131395	3.27856e-06
2	1	0	0	0	34.4223	-0.201512	-0.202297	0.0163062	2	-0.00131346	3.29871e-06
2	1	0	0	0	34.4523	-0.198513	-0.199285	0.0167052	2	-0.00131296	3.3291e-06
2	1	0	0	0	34.4823	-0.195515	-0.196306	0.0170596	2	-0.00131244	3.34891e-06
2	1	0	0	0	34.5123	-0.192516	-0.193291	0.017389	2	-0.00131192	3.36114e-06
2	1	0	0	0	34.5423	-0.189517	-0.190279	0.0177775	2	-0.00131138	3.38268e-06
2	1	0	0	0	34.5723	-0.186518	-0.187276	0.0181138	2	-0.00131084	3.39227e-06
2	1	0	0	0	34.6023	-0.183519	-0.184285	0.018443	2	-0.00131028	3.39876e-06
2	1	0	0	0	34.6323	-0.18052	-0.181295	0.0188082	2	-0.00130971	3.40985e-06
2	1	0	0	0	34.6623	-0.177521	-0.178295	0.0191315	2	-0.00130914	3.41105e-06
2	1	0	0	0	34.6923	-0.174522	-0.17529	0.0194714	2	-0.00130855	3.41313e-06
2	1	0	0	0	34.7223	-0.171523	-0.172307	0.0197835	2	-0.00130795	3.40884e-06
2	1	0	0	0	34.7523	-0.168524	-0.169299	0.0200467	2	-0.00130735	3.39388e-06
2	1	0	0	0	34.7823	-0.165525	-0.166302	0.0203779	2	-0.00130673	3.38888e-06
2	1	0	0	0	34.8123	-0.162526	-0.163296	0.0206506	2	-0.00130611	3.37217e-06
2	1	0	0	0	34.8423	-0.159527	-0.160299	0.0209452	2	-0.00130548	3.35749e-06
2	1	0	0	0	34.8722	-0.156531	-0.157295	0.0212063	2	-0.00130484	3.33564e-06
2	1	0	1	0	34.9021	-0.15353	-0.154297	0.021416	2	-0.00130419	3.30443e-06
2	1	0	1	0	34.9321	-0.150531	-0.151303	0.0216248	2	-0.00130354	3.27189e-06
2	1	0	1	0	34.9621	-0.147532	-0.148312	0.0218313	2	-0.00130288	3.23784e-06
2	1	0	1	0	34.9921	-0.144533	-0.145307	0.0219713	2	-0.00130221	3.19258e-06
2	1	0	1	0	35.0221	-0.141534	-0.142321	0.0221102	2	-0.00130154	3.14675e-06
2	1	0	1	0	35.0521	-0.138535	-0.139304	0.0222307	2	-0.00130087	3.09682e-06
2	1	0	1	0	35.0821	-0.135536	-0.1363	0.022335	2	-0.00130019	3.04427e-06
2	1	0	1	0	35.1121	-0.132537	-0.133302	0.0223221	2	-0.00129952	2.97557e-06
2	1	0	1	0	35.1421	-0.129538	-0.130301	0.0223729	2	-0.00129884	2.9152e-06
2	1	0	1	0	35.1721	-0.126539	-0.127331	0.0223287	2	-0.00129816	2.84314e-06
2	1	0	1	0	35.2021	-0.12354	-0.124331	0.022306	2	-0.00129748	2.77333e-06
2	1	0	1	0	35.2321	-0.120541	-0.121327	0.0222137	2	-0.0012968	2.69512e-06
2	1	0	1	0	35.2621	-0.117542	-0.118322	0.0221315	2	-0.00129613	2.61864e-06
2	1	0	1	0	35.2921	-0.114543	-0.115335	0.0219964	2	-0.00129546	2.53695e-06
2	1	0	1	0	35.3221	-0.111545	-0.112323	0.0218527	2	-0.00129479	2.45456e-06
2	1	0	1	0	35.3521	-0.108546	-0.109334	0.0216249	2	-0.00129413	2.36433e-06
2	1	0	1	0	35.3821	-0.105547	-0.106345	0.0214161	2	-0.00129348	2.27748e-06
2	1	0	1	0	35.4121	-0.102548	-0.103321	0.0212172	2	-0.00129283	2.19218e-06
2	1	0	0	0	35.4419	-0.0995488	-0.100316	0.0209908	2	-0.0012922	2.10571e-06
2	1	0	0	0	35.4719	-0.0965499	-0.0973269	0.0206726	2	-0.00129156	2.012e-06
2	1	0	0	0	35.5019	-0.093551	-0.0943131	0.0204138	2	-0.00129094	1.92529e-06
2	1	0	0	0	35.5319	-0.090552	-0.0913136	0.0201479	2	-0.00129032	1.83977e-06
2	1	0	0	0	35.5619	-0.0875531	-0.0883278	0.019849	2	-0.00128971	1.75322e-06
2	1	0	0	0	35.5919	-0.0845542	-0.0853189	0.019523	2	-0.00128911	1.66568e-06
2	1	0	0	0	35.6219	-0.0815553	-0.0823268	0.0192007	2	-0.00128852	1.58073e-06
2	1	0	0	0	35.6519	-0.0785563	-0.0793353	0.0189075	2	-0.00128794	1.50003e-06
2	1	0	0	0	35.6819	-0.0755574	-0.0763466	0.0186046	2	-0.00128737	1.4204e-06
2	1	0	0	0	35.7119	-0.0725585	-0.0733351	0.018317	2	-0.00128681	1.34328e-06
2	1	0	0	0	35.7419	-0.0695595	-0.0703536	0.0180262	2	-0.00128626	1.26821e-06
2	1	0	0	0	35.7719	-0.0665606	-0.0673322	0.0177508	2	-0.00128571	1.1952e-06
2	1	0	0	0	35.8019	-0.0635617	-0.0643356	0.0174384	2	-0.00128518	1.12191e-06
2	1	0	0	0	35.8319	-0.0605627	-0.0613448	0.0171613	2	-0.00128465	1.05276e-06
2	1	0	0	0	35.8619	-0.0575638	-0.0583613	0.0168851	2	-0.00128413	9.85439e-07
2	1	0	0	0	35.8919	-0.0545649	-0.0553518	0.0166697	2	-0.00128362	9.22701e-07
2	1	0	0	0	35.9219	-0.051566	-0.0523432	0.0164417	2	-0.00128311	8.60609e-07
2	1	0	0	0	35.9519	-0.048567	-0.04934	0.0162022	2	-0.00128261	7.99417e-07
2	1	0	0	0	35.9819	-0.0455681	-0.0463547	0.0160356	2	-0.00128212	7.43323e-07
2	1	0	0	0	35.9918	-0.0445707	-0.0453467	0.0159487	2	-0.00128196	7.23222e-07