File: TAP_Report/Data/Res_growth/mg5_2_2.mpt
EC-Lab ASCII FILE
Nb header lines : 54

Cyclic Voltammetry

Run on channel : 1 (SN 0696)
User :
Electrode connection : standard
Ewe ctrl range : min = -2.50 V, max = 2.50 V
Ewe,I filtering : 50 kHz
Channel : Grounded
Acquisition started on : 01/18/2017 14:39:24
Saved on :
	File : mg5_2.mpr
	Directory : H:\EC-Lab\Data\Resazurin Bulk 18-1-17\
	Host : 144.32.136.43
Device : SP-300 (SN 0182)
Address : USB
EC-Lab for windows v10.44 (software)
Internet server v10.44 (firmware)
Command interpretor v10.44 (firmware)
Electrode material :
Initial state :
Electrolyte :
Comments :
Cable : standard
Reference electrode : SCE Saturated Calomel Electrode (0.241 V)
Electrode surface area : 0.001 cm²
Characteristic mass : 0.001 g
Equivalent Weight : 0.000 g/eq.
Density : 0.000 g/cm3
Ei (V)              0.000
vs.                 Eoc
dE/dt               100.000
dE/dt unit          mV/s
E1 (V)              0.000
vs.                 Ref
Step percent        50
N                   10
E range min (V)     -2.500
E range max (V)     2.500
I Range             Auto
I Range min         Unset
I Range max         Unset
I Range init        Unset
Bandwidth           8
E2 (V)              -0.900
vs.                 Ref
nc cycles           2
Reverse Scan        1
Ef (V)              0.000
vs.                 Eoc

mode	ox/red	error	control changes	counter inc.	time/s	control/V	Ewe/V	<I>/mA	cycle number	(Q-Qo)/C	P/W
2	1	0	0	1	17.9966	-0.0518159	-0.0525842	0.0163565	2	-0.00059876	8.60092e-07
2	1	0	1	1	18.0221	-0.0492668	-0.0500694	0.0161785	2	-0.000598337	8.10047e-07
2	1	0	1	1	18.0521	-0.0462679	-0.0470681	0.0159065	2	-0.000597847	7.48688e-07
2	1	0	1	1	18.0821	-0.0432689	-0.0440826	0.0156528	2	-0.000597364	6.90015e-07
2	1	0	1	1	18.1121	-0.04027	-0.0410813	0.0154594	2	-0.000596889	6.35091e-07
2	1	0	1	1	18.1421	-0.0372711	-0.0380748	0.0152034	2	-0.000596421	5.78868e-07
2	1	0	1	1	18.1721	-0.0342721	-0.035061	0.0149897	2	-0.000595959	5.25554e-07
2	1	0	1	1	18.2021	-0.0312732	-0.0320619	0.0148027	2	-0.000595504	4.74604e-07
2	1	0	1	1	18.2321	-0.0282743	-0.0290602	0.0146138	2	-0.000595055	4.24681e-07
2	1	0	1	1	18.2621	-0.0252754	-0.0260846	0.0144091	2	-0.000594611	3.75855e-07
2	1	0	1	1	18.2921	-0.0222764	-0.0230757	0.0142419	2	-0.000594172	3.28642e-07
2	1	0	1	1	18.3221	-0.0192775	-0.0200864	0.0140921	2	-0.000593737	2.83058e-07
2	1	0	1	1	18.3521	-0.0162786	-0.0170718	0.0139814	2	-0.000593308	2.38687e-07
2	1	0	1	1	18.3821	-0.0132796	-0.0140792	0.0138882	2	-0.000592882	1.95535e-07
2	1	0	1	1	18.4121	-0.0102807	-0.0110773	0.0137249	2	-0.00059246	1.52036e-07
2	1	0	1	1	18.4421	-0.00728179	-0.00808013	0.0136262	2	-0.000592041	1.10102e-07
2	1	0	1	1	18.4721	-0.00428286	-0.00507718	0.0135065	2	-0.000591626	6.85748e-08
2	1	0	1	1	18.5021	-0.00128393	-0.00208612	0.0133816	2	-0.000591214	2.79156e-08
2	0	0	1	1	18.5205	-0.000584183	-0.00143854	0.0114376	2	-0.000590976	1.64534e-08
2	0	0	1	1	18.5505	-0.00358311	-0.00441944	0.00968542	2	-0.000590673	4.28042e-08
2	0	0	1	1	18.5805	-0.00658204	-0.00740964	0.00871989	2	-0.000590408	6.46113e-08
2	0	0	1	1	18.6105	-0.00958097	-0.0104213	0.00797901	2	-0.000590167	8.31516e-08
2	0	0	1	1	18.6405	-0.0125799	-0.0134145	0.00735395	2	-0.000589946	9.86495e-08
2	0	0	1	1	18.6705	-0.0155788	-0.0164117	0.00681351	2	-0.000589743	1.11821e-07
2	0	0	1	1	18.7005	-0.0185778	-0.0194204	0.00632547	2	-0.000589556	1.22843e-07
2	0	0	1	1	18.7305	-0.0215767	-0.0224195	0.00589071	2	-0.000589382	1.32067e-07
2	0	0	1	1	18.7605	-0.0245756	-0.0254116	0.00551735	2	-0.00058922	1.40205e-07
2	0	0	1	1	18.7905	-0.0275745	-0.0284133	0.00512101	2	-0.00058907	1.45505e-07
2	0	0	1	1	18.8205	-0.0305735	-0.031398	0.00480406	2	-0.00058893	1.50838e-07
2	0	0	1	1	18.8505	-0.0335724	-0.0344113	0.00446215	2	-0.0005888	1.53548e-07
2	0	0	1	1	18.8805	-0.0365713	-0.0374026	0.00415013	2	-0.000588679	1.55226e-07
2	0	0	0	1	18.9415	-0.0426691	-0.0435094	0.00333773	2	-0.000588453	1.45223e-07
2	0	0	0	1	18.9715	-0.0456681	-0.0465236	0.00309001	2	-0.000588357	1.43759e-07
2	0	0	0	1	19.0015	-0.048667	-0.0495191	0.00285957	2	-0.000588268	1.41603e-07
2	0	0	0	1	19.0315	-0.0516659	-0.052524	0.00264415	2	-0.000588186	1.38881e-07
2	0	0	1	1	19.0613	-0.0546649	-0.0555002	0.00241544	2	-0.000588111	1.34057e-07
2	0	0	1	1	19.0913	-0.0576638	-0.0585209	0.00221592	2	-0.000588042	1.29678e-07
2	0	0	1	1	19.1213	-0.0606627	-0.0615035	0.002037	2	-0.000587978	1.25283e-07
2	0	0	1	1	19.1513	-0.0636616	-0.0645075	0.00185042	2	-0.000587921	1.19366e-07
2	0	0	1	1	19.1813	-0.0666606	-0.0675217	0.00166181	2	-0.000587868	1.12208e-07
2	0	0	1	1	19.2113	-0.0696595	-0.0705242	0.00149891	2	-0.000587821	1.0571e-07
2	0	0	1	1	19.2413	-0.0726584	-0.0735185	0.0013305	2	-0.000587779	9.78164e-08
2	0	0	1	1	19.2713	-0.0756574	-0.0765121	0.00117669	2	-0.000587741	9.00307e-08
2	0	0	1	1	19.3013	-0.0786563	-0.0795057	0.00101573	2	-0.000587708	8.0756e-08
2	0	0	1	1	19.3313	-0.0816552	-0.0824983	0.000870774	2	-0.00058768	7.18373e-08
2	0	0	1	1	19.3613	-0.0846541	-0.0855167	0.000708521	2	-0.000587657	6.05904e-08
2	0	0	1	1	19.3913	-0.0876531	-0.088501	0.000567987	2	-0.000587638	5.02674e-08
2	0	0	1	1	19.4213	-0.090652	-0.0914978	0.000438569	2	-0.000587623	4.0128e-08
2	0	0	1	1	19.4513	-0.0936509	-0.0945073	0.000286705	2	-0.000587612	2.70957e-08
2	0	0	1	1	19.4813	-0.0966498	-0.0975155	0.000168258	2	-0.000587606	1.64077e-08
2	0	0	1	1	19.5113	-0.0996488	-0.100512	2.09915e-05	2	-0.000587603	2.1099e-09
2	0	0	1	1	19.5413	-0.102648	-0.103519	-0.000104138	2	-0.000587605	1.07803e-08
2	0	0	1	1	19.5713	-0.105647	-0.106489	-0.000208117	2	-0.00058761	2.21622e-08
2	0	0	0	1	19.6011	-0.108646	-0.1095	-0.000396621	2	-0.000587619	4.34301e-08
2	0	0	0	1	19.6311	-0.111644	-0.112516	-0.000507858	2	-0.000587633	5.71424e-08
2	0	0	0	1	19.6611	-0.114643	-0.115524	-0.000633299	2	-0.000587651	7.31614e-08
2	0	0	0	1	19.6911	-0.117642	-0.118518	-0.000761156	2	-0.000587672	9.02106e-08
2	0	0	0	1	19.7211	-0.120641	-0.121528	-0.000878623	2	-0.000587697	1.06778e-07
2	0	0	0	1	19.7511	-0.12364	-0.124512	-0.00102222	2	-0.000587726	1.27278e-07
2	0	0	0	1	19.7811	-0.126639	-0.12752	-0.00114669	2	-0.000587758	1.46225e-07
2	0	0	0	1	19.8111	-0.129638	-0.130523	-0.0012825	2	-0.000587795	1.67395e-07
2	0	0	0	1	19.8411	-0.132637	-0.133497	-0.0014243	2	-0.000587836	1.9014e-07
2	0	0	0	1	19.8711	-0.135636	-0.1365	-0.00155948	2	-0.000587881	2.12868e-07
2	0	0	0	1	19.9011	-0.138635	-0.139493	-0.00169558	2	-0.00058793	2.36522e-07
2	0	0	0	1	19.9311	-0.141634	-0.142514	-0.00183662	2	-0.000587983	2.61744e-07
2	0	0	0	1	19.9611	-0.144633	-0.145523	-0.00197668	2	-0.00058804	2.87651e-07
2	0	0	0	1	19.9911	-0.147632	-0.1485	-0.00212174	2	-0.000588102	3.15078e-07
2	0	0	0	1	20.0211	-0.150631	-0.151517	-0.00227334	2	-0.000588168	3.4445e-07
2	0	0	0	1	20.0511	-0.153629	-0.154519	-0.00241781	2	-0.000588239	3.73597e-07
2	0	0	0	1	20.0811	-0.156628	-0.157515	-0.00260082	2	-0.000588315	4.09668e-07
2	0	0	0	1	20.1111	-0.159627	-0.160488	-0.00275193	2	-0.000588395	4.41653e-07
2	0	0	0	1	20.1411	-0.162626	-0.163509	-0.00292361	2	-0.00058848	4.78036e-07
2	0	0	1	1	20.1709	-0.165625	-0.166523	-0.00309148	2	-0.00058857	5.14801e-07
2	0	0	1	1	20.2009	-0.168624	-0.169523	-0.0032917	2	-0.000588666	5.5802e-07
2	0	0	1	1	20.2309	-0.171623	-0.172503	-0.00345371	2	-0.000588768	5.95777e-07
2	0	0	1	1	20.2609	-0.174622	-0.175513	-0.00365408	2	-0.000588875	6.41339e-07
2	0	0	1	1	20.2909	-0.177621	-0.178515	-0.00385992	2	-0.000588987	6.89055e-07
2	0	0	1	1	20.3209	-0.18062	-0.181515	-0.00406786	2	-0.000589107	7.38378e-07
2	0	0	1	1	20.3509	-0.183619	-0.184499	-0.00428019	2	-0.000589232	7.8969e-07
2	0	0	1	1	20.3809	-0.186618	-0.187475	-0.00449167	2	-0.000589364	8.42075e-07
2	0	0	1	1	20.4109	-0.189617	-0.190498	-0.00472651	2	-0.000589503	9.00392e-07
2	0	0	1	1	20.4409	-0.192616	-0.193518	-0.0049591	2	-0.000589649	9.59674e-07
2	0	0	1	1	20.4709	-0.195614	-0.196521	-0.00523231	2	-0.000589802	1.02826e-06
2	0	0	1	1	20.5009	-0.198613	-0.199505	-0.00548059	2	-0.000589963	1.09341e-06
2	0	0	1	1	20.5309	-0.201612	-0.202513	-0.00576062	2	-0.000590132	1.1666e-06
2	0	0	1	1	20.5609	-0.204611	-0.205518	-0.00604516	2	-0.00059031	1.24239e-06
2	0	0	1	1	20.5909	-0.20761	-0.20851	-0.00633575	2	-0.000590496	1.32107e-06
2	0	0	1	1	20.6209	-0.210609	-0.211504	-0.0066264	2	-0.00059069	1.40151e-06
2	0	0	1	1	20.6509	-0.213608	-0.214515	-0.00695594	2	-0.000590894	1.49215e-06
2	0	0	1	1	20.6809	-0.216607	-0.217527	-0.00727284	2	-0.000591108	1.58204e-06
2	0	0	1	1	20.7109	-0.219606	-0.220522	-0.00761753	2	-0.000591331	1.67983e-06
2	0	0	0	1	20.7407	-0.222605	-0.223516	-0.0079285	2	-0.000591563	1.77214e-06
2	0	0	0	1	20.7707	-0.225604	-0.226518	-0.00828821	2	-0.000591807	1.87743e-06
2	0	0	0	1	20.8007	-0.228603	-0.229529	-0.00863409	2	-0.000592061	1.98177e-06
2	0	0	0	1	20.8307	-0.231602	-0.232525	-0.00899961	2	-0.000592326	2.09263e-06
2	0	0	0	1	20.8607	-0.234601	-0.235533	-0.00936985	2	-0.000592602	2.2069e-06
2	0	0	0	1	20.8907	-0.237599	-0.238508	-0.00972535	2	-0.000592888	2.31958e-06
2	0	0	0	1	20.9207	-0.240598	-0.241526	-0.0100953	2	-0.000593186	2.43826e-06
2	0	0	1	1	20.9817	-0.246696	-0.247588	-0.0105395	2	-0.000593824	2.60946e-06
2	0	0	1	1	21.0117	-0.249695	-0.250587	-0.0109383	2	-0.000594155	2.74101e-06
2	0	0	1	1	21.0417	-0.252694	-0.253593	-0.0113641	2	-0.000594498	2.88186e-06
2	0	0	1	1	21.0717	-0.255693	-0.256588	-0.011718	2	-0.000594853	3.00671e-06
2	0	0	1	1	21.1017	-0.258692	-0.259585	-0.0120814	2	-0.000595218	3.13615e-06
2	0	0	1	1	21.1317	-0.261691	-0.262568	-0.012419	2	-0.000595595	3.26084e-06
2	0	0	1	1	21.1617	-0.26469	-0.265582	-0.0128383	2	-0.000595983	3.40963e-06
2	0	0	1	1	21.1917	-0.267689	-0.268584	-0.0132004	2	-0.000596382	3.54542e-06
2	0	0	1	1	21.2217	-0.270688	-0.271594	-0.013565	2	-0.000596792	3.68416e-06
2	0	0	1	1	21.2517	-0.273687	-0.274568	-0.0138918	2	-0.000597212	3.81425e-06
2	0	0	0	1	21.2815	-0.276686	-0.277574	-0.0142803	2	-0.000597641	3.96384e-06
2	0	0	0	1	21.3115	-0.279684	-0.280589	-0.0146049	2	-0.000598083	4.09797e-06
2	0	0	0	1	21.3415	-0.282683	-0.283576	-0.0149476	2	-0.000598535	4.23878e-06
2	0	0	0	1	21.3715	-0.285682	-0.286571	-0.0153184	2	-0.000598998	4.38982e-06
2	0	0	0	1	21.4015	-0.288681	-0.289553	-0.0156711	2	-0.00059947	4.53762e-06
2	0	0	0	1	21.4315	-0.29168	-0.292554	-0.0159481	2	-0.000599952	4.66567e-06
2	0	0	0	1	21.4615	-0.294679	-0.295556	-0.0162773	2	-0.000600445	4.81085e-06
2	0	0	0	1	21.4915	-0.297678	-0.298559	-0.0165859	2	-0.000600947	4.95186e-06
2	0	0	0	1	21.5215	-0.300677	-0.301543	-0.0169319	2	-0.000601458	5.10571e-06
2	0	0	0	1	21.5515	-0.303676	-0.304543	-0.0172315	2	-0.000601978	5.24774e-06
2	0	0	0	1	21.5815	-0.306675	-0.307561	-0.0175389	2	-0.000602508	5.3943e-06
2	0	0	0	1	21.6115	-0.309674	-0.310547	-0.0178542	2	-0.000603047	5.54456e-06
2	0	0	0	1	21.6415	-0.312673	-0.313559	-0.0181377	2	-0.000603595	5.68724e-06
2	0	0	0	1	21.6715	-0.315672	-0.316556	-0.0184338	2	-0.000604152	5.83534e-06
2	0	0	0	1	21.7015	-0.318671	-0.319562	-0.0187184	2	-0.000604718	5.98167e-06
2	0	0	0	1	21.7315	-0.321669	-0.32257	-0.0190024	2	-0.000605293	6.12959e-06
2	0	0	0	1	21.7615	-0.324668	-0.325544	-0.0192842	2	-0.000605876	6.27787e-06
2	0	0	0	1	21.7915	-0.327667	-0.328566	-0.0195865	2	-0.000606467	6.43546e-06
2	0	0	0	1	21.8215	-0.330666	-0.331565	-0.0199	2	-0.000607068	6.59814e-06
2	0	0	1	1	21.8513	-0.333665	-0.334554	-0.0201669	2	-0.000607673	6.7469e-06
2	0	0	1	1	21.8813	-0.336664	-0.337546	-0.0204341	2	-0.000608291	6.89744e-06
2	0	0	1	1	21.9113	-0.339663	-0.340543	-0.0207494	2	-0.000608917	7.06604e-06
2	0	0	1	1	21.9413	-0.342662	-0.343538	-0.0209701	2	-0.000609552	7.20405e-06
2	0	0	1	1	21.9713	-0.345661	-0.346544	-0.0212759	2	-0.000610195	7.37305e-06
2	0	0	1	1	22.0013	-0.34866	-0.349552	-0.0215941	2	-0.000610847	7.54825e-06
2	0	0	1	1	22.0313	-0.351659	-0.352562	-0.0218993	2	-0.000611508	7.72085e-06
2	0	0	1	1	22.0613	-0.354658	-0.355544	-0.0221544	2	-0.000612177	7.87684e-06
2	0	0	1	1	22.0913	-0.357657	-0.358545	-0.0224581	2	-0.000612855	8.05225e-06
2	0	0	1	1	22.1213	-0.360655	-0.361546	-0.0227256	2	-0.000613541	8.21636e-06
2	0	0	1	1	22.1513	-0.363654	-0.364527	-0.0230405	2	-0.000614237	8.39889e-06
2	0	0	1	1	22.1813	-0.366653	-0.367521	-0.0233319	2	-0.00061494	8.57498e-06
2	0	0	1	1	22.2113	-0.369652	-0.370521	-0.0236087	2	-0.000615653	8.74754e-06
2	0	0	1	1	22.2413	-0.372651	-0.373535	-0.0239349	2	-0.000616375	8.94052e-06
2	0	0	1	1	22.2713	-0.37565	-0.37653	-0.0242352	2	-0.000617106	9.1253e-06
2	0	0	1	1	22.3013	-0.378649	-0.379526	-0.0244813	2	-0.000617845	9.29131e-06
2	0	0	1	1	22.3313	-0.381648	-0.382536	-0.0248211	2	-0.000618593	9.49496e-06
2	0	0	1	1	22.3613	-0.384647	-0.385514	-0.0250777	2	-0.00061935	9.66781e-06
2	0	0	1	1	22.3912	-0.387639	-0.388524	-0.0254003	2	-0.000620114	9.86865e-06
2	0	0	0	1	22.4211	-0.390645	-0.391514	-0.0256959	2	-0.000620886	1.00603e-05
2	0	0	0	1	22.4511	-0.393644	-0.394517	-0.0259724	2	-0.000621669	1.02465e-05
2	0	0	0	1	22.4811	-0.396643	-0.39753	-0.0262465	2	-0.000622461	1.04337e-05
2	0	0	0	1	22.5111	-0.399642	-0.400536	-0.026561	2	-0.000623262	1.06386e-05
2	0	0	0	1	22.5411	-0.40264	-0.403511	-0.0268141	2	-0.000624071	1.08198e-05
2	0	0	0	1	22.5711	-0.405639	-0.40652	-0.0270818	2	-0.000624889	1.10093e-05
2	0	0	0	1	22.6011	-0.408638	-0.40953	-0.0273828	2	-0.000625715	1.12141e-05
2	0	0	0	1	22.6311	-0.411637	-0.41253	-0.0276396	2	-0.000626549	1.14022e-05
2	0	0	0	1	22.6611	-0.414636	-0.415525	-0.0279036	2	-0.000627391	1.15946e-05
2	0	0	0	1	22.6911	-0.417635	-0.418514	-0.0281781	2	-0.000628241	1.17929e-05
2	0	0	0	1	22.7211	-0.420634	-0.421518	-0.028471	2	-0.000629099	1.20011e-05
2	0	0	0	1	22.7511	-0.423633	-0.424541	-0.0287171	2	-0.000629964	1.21916e-05
2	0	0	0	1	22.7811	-0.426632	-0.42751	-0.0289015	2	-0.000630837	1.23557e-05
2	0	0	0	1	22.8111	-0.429631	-0.430513	-0.0292042	2	-0.000631718	1.25728e-05
2	0	0	0	1	22.8411	-0.43263	-0.433519	-0.0294193	2	-0.000632605	1.27538e-05
2	0	0	0	1	22.8711	-0.435629	-0.436508	-0.0296727	2	-0.0006335	1.29524e-05
2	0	0	0	1	22.9011	-0.438628	-0.439516	-0.0298729	2	-0.000634401	1.31296e-05
2	0	0	0	1	22.9311	-0.441627	-0.442498	-0.0300995	2	-0.000635309	1.3319e-05
2	0	0	1	1	22.9609	-0.444625	-0.445496	-0.03032	2	-0.000636217	1.35074e-05
2	0	0	1	1	22.9909	-0.447624	-0.448516	-0.0305287	2	-0.000637139	1.36926e-05
2	0	0	1	1	23.0209	-0.450623	-0.451518	-0.0307536	2	-0.000638066	1.38858e-05
2	0	0	1	1	23.0509	-0.453622	-0.454489	-0.0309042	2	-0.000638999	1.40456e-05
2	0	0	1	1	23.0809	-0.456621	-0.457503	-0.031126	2	-0.000639938	1.42403e-05
2	0	0	1	1	23.1109	-0.45962	-0.4605	-0.0312949	2	-0.000640883	1.44113e-05
2	0	0	1	1	23.1409	-0.462619	-0.463503	-0.0314946	2	-0.000641834	1.45978e-05
2	0	0	1	1	23.1709	-0.465618	-0.466509	-0.0316766	2	-0.00064279	1.47774e-05
2	0	0	1	1	23.2009	-0.468617	-0.469487	-0.0318627	2	-0.000643751	1.49591e-05
2	0	0	1	1	23.2309	-0.471616	-0.472502	-0.0319912	2	-0.000644718	1.51159e-05
2	0	0	1	1	23.2609	-0.474615	-0.475508	-0.0322256	2	-0.00064569	1.53235e-05
2	0	0	1	1	23.2909	-0.477614	-0.478484	-0.0323764	2	-0.000646667	1.54916e-05
2	0	0	1	1	23.3209	-0.480613	-0.481491	-0.0324903	2	-0.000647649	1.56438e-05
2	0	0	1	1	23.3509	-0.483612	-0.484509	-0.0326788	2	-0.000648635	1.58332e-05
2	0	0	1	1	23.3809	-0.48661	-0.487484	-0.0328246	2	-0.000649626	1.60015e-05
2	0	0	1	1	23.4109	-0.489609	-0.490494	-0.0329923	2	-0.000650622	1.61825e-05
2	0	0	1	1	23.4409	-0.492608	-0.493483	-0.0331236	2	-0.000651622	1.63459e-05
2	0	0	1	1	23.4709	-0.495607	-0.496474	-0.033272	2	-0.000652627	1.65187e-05
2	0	0	1	1	23.5009	-0.498606	-0.499488	-0.0334284	2	-0.000653636	1.6697e-05
2	0	0	0	1	23.5307	-0.501605	-0.502485	-0.033553	2	-0.000654643	1.68599e-05
2	0	0	0	1	23.5607	-0.504604	-0.505496	-0.0337062	2	-0.000655661	1.70383e-05
2	0	0	0	1	23.5907	-0.507603	-0.508489	-0.0338146	2	-0.000656682	1.71943e-05
2	0	0	0	1	23.6207	-0.510602	-0.511498	-0.0339398	2	-0.000657708	1.73601e-05
2	0	0	0	1	23.6507	-0.513601	-0.514493	-0.034107	2	-0.000658738	1.75478e-05
2	0	0	0	1	23.6807	-0.5166	-0.517491	-0.0342374	2	-0.000659772	1.77176e-05
2	0	0	0	1	23.7107	-0.519599	-0.520494	-0.0344199	2	-0.00066081	1.79153e-05
2	0	0	0	1	23.7407	-0.522598	-0.52348	-0.0345227	2	-0.000661851	1.80719e-05
2	0	0	0	1	23.7707	-0.525597	-0.526485	-0.0346207	2	-0.000662897	1.82273e-05
2	0	0	0	1	23.8007	-0.528596	-0.529483	-0.0347769	2	-0.000663946	1.84138e-05
2	0	0	0	1	23.8307	-0.531594	-0.532486	-0.0348892	2	-0.000664999	1.8578e-05
2	0	0	0	1	23.8607	-0.534593	-0.535485	-0.0349936	2	-0.000666056	1.87385e-05
2	0	0	0	1	23.8907	-0.537592	-0.53848	-0.0351226	2	-0.000667116	1.89128e-05
2	0	0	0	1	23.9207	-0.540591	-0.541479	-0.0352516	2	-0.00066818	1.9088e-05
2	0	0	0	1	23.9507	-0.54359	-0.544459	-0.0353619	2	-0.000669247	1.92531e-05
2	0	0	0	1	23.9807	-0.546589	-0.547473	-0.0354709	2	-0.000670319	1.94194e-05
2	0	0	0	1	24.0107	-0.549588	-0.550477	-0.0356364	2	-0.000671394	1.9617e-05
2	0	0	0	1	24.0407	-0.552587	-0.553482	-0.035716	2	-0.000672472	1.97682e-05
2	0	0	0	1	24.0706	-0.555579	-0.556458	-0.0358515	2	-0.00067355	1.99499e-05
2	0	0	1	1	24.1005	-0.558585	-0.559474	-0.0359919	2	-0.000674633	2.01365e-05
2	0	0	1	1	24.1305	-0.561584	-0.562468	-0.0360991	2	-0.000675722	2.03046e-05
2	0	0	1	1	24.1605	-0.564583	-0.565467	-0.0361974	2	-0.000676815	2.04684e-05
2	0	0	1	1	24.1905	-0.567582	-0.568474	-0.0363404	2	-0.000677912	2.06586e-05
2	0	0	1	1	24.2205	-0.570581	-0.571456	-0.0364477	2	-0.000679012	2.08283e-05
2	0	0	1	1	24.2505	-0.573579	-0.57446	-0.0365549	2	-0.000680116	2.09993e-05
2	0	0	1	1	24.2805	-0.576578	-0.577467	-0.0366965	2	-0.000681224	2.1191e-05
2	0	0	1	1	24.3105	-0.579577	-0.58047	-0.0368238	2	-0.000682336	2.13751e-05
2	0	0	1	1	24.3405	-0.582576	-0.583456	-0.0369773	2	-0.000683451	2.15746e-05
2	0	0	1	1	24.3705	-0.585575	-0.586471	-0.0371153	2	-0.00068457	2.1767e-05
2	0	0	1	1	24.4005	-0.588574	-0.589453	-0.0372067	2	-0.000685694	2.19316e-05
2	0	0	1	1	24.4305	-0.591573	-0.592454	-0.0373951	2	-0.000686821	2.21549e-05
2	0	0	1	1	24.4605	-0.594572	-0.595441	-0.037511	2	-0.000687953	2.23356e-05
2	0	0	1	1	24.4905	-0.597571	-0.598442	-0.0376016	2	-0.000689088	2.25024e-05
2	0	0	1	1	24.5205	-0.60057	-0.601458	-0.0378377	2	-0.000690228	2.27578e-05
2	0	0	1	1	24.5505	-0.603569	-0.604447	-0.037906	2	-0.000691373	2.29122e-05
2	0	0	1	1	24.5805	-0.606568	-0.607435	-0.0381122	2	-0.000692522	2.31507e-05
2	0	0	1	1	24.6105	-0.609567	-0.610433	-0.0382528	2	-0.000693675	2.33508e-05
2	0	0	0	1	24.6403	-0.612566	-0.613454	-0.0384514	2	-0.000694826	2.35882e-05
2	0	0	0	1	24.6703	-0.615564	-0.616464	-0.0385632	2	-0.00069599	2.37728e-05
2	0	0	0	1	24.7003	-0.618563	-0.619459	-0.038733	2	-0.000697158	2.39935e-05
2	0	0	0	1	24.7303	-0.621562	-0.622452	-0.0389149	2	-0.000698332	2.42226e-05
2	0	0	0	1	24.7603	-0.624561	-0.625441	-0.0390987	2	-0.00069951	2.44539e-05
2	0	0	0	1	24.7903	-0.62756	-0.628456	-0.039289	2	-0.000700694	2.46914e-05
2	0	0	0	1	24.8203	-0.630559	-0.631438	-0.0394442	2	-0.000701884	2.49066e-05
2	0	0	0	1	24.8503	-0.633558	-0.634454	-0.0396502	2	-0.000703079	2.51562e-05
2	0	0	0	1	24.8803	-0.636557	-0.637445	-0.0398181	2	-0.00070428	2.53819e-05
2	0	0	0	1	24.9103	-0.639556	-0.640442	-0.0400639	2	-0.000705488	2.56586e-05
2	0	0	0	1	24.9403	-0.642555	-0.643432	-0.0402829	2	-0.000706702	2.59193e-05
2	0	0	0	1	24.9703	-0.645554	-0.646435	-0.0405207	2	-0.000707922	2.6194e-05
2	0	0	0	1	25.0003	-0.648553	-0.649428	-0.0407286	2	-0.00070915	2.64503e-05
2	0	0	0	1	25.0303	-0.651552	-0.652455	-0.0409774	2	-0.000710384	2.67359e-05
2	0	0	0	1	25.0603	-0.654551	-0.655439	-0.0412317	2	-0.000711626	2.70248e-05
2	0	0	0	1	25.0903	-0.657549	-0.658436	-0.0414886	2	-0.000712876	2.73176e-05
2	0	0	0	1	25.1203	-0.660548	-0.661442	-0.0417692	2	-0.000714133	2.76279e-05
2	0	0	0	1	25.1503	-0.663547	-0.664453	-0.0420733	2	-0.000715399	2.79558e-05
2	0	0	0	1	25.1803	-0.666546	-0.667438	-0.0423199	2	-0.000716673	2.82459e-05
2	0	0	1	1	25.2101	-0.669545	-0.670439	-0.0426302	2	-0.000717947	2.8581e-05
2	0	0	1	1	25.2401	-0.672544	-0.673434	-0.0429317	2	-0.00071924	2.89117e-05
2	0	0	1	1	25.2701	-0.675543	-0.676425	-0.0432699	2	-0.000720541	2.92688e-05
2	0	0	1	1	25.3001	-0.678542	-0.679444	-0.0436094	2	-0.000721853	2.96302e-05
2	0	0	1	1	25.3301	-0.681541	-0.682446	-0.0439556	2	-0.000723175	2.99973e-05
2	0	0	1	1	25.3601	-0.68454	-0.685445	-0.0443177	2	-0.000724508	3.03773e-05
2	0	0	1	1	25.3901	-0.687539	-0.688423	-0.0447159	2	-0.000725851	3.07835e-05
2	0	0	1	1	25.4201	-0.690538	-0.691445	-0.0451099	2	-0.000727207	3.1191e-05
2	0	0	1	1	25.4501	-0.693537	-0.694444	-0.0455223	2	-0.000728574	3.16127e-05
2	0	0	1	1	25.4801	-0.696536	-0.697428	-0.0459336	2	-0.000729953	3.20353e-05
2	0	0	1	1	25.5101	-0.699534	-0.700433	-0.0463473	2	-0.000731345	3.24632e-05
2	0	0	1	1	25.5401	-0.702533	-0.703435	-0.0468302	2	-0.000732751	3.2942e-05
2	0	0	1	1	25.5701	-0.705532	-0.706418	-0.0473048	2	-0.000734171	3.3417e-05
2	0	0	1	1	25.6001	-0.708531	-0.709425	-0.0477601	2	-0.000735605	3.38822e-05
2	0	0	1	1	25.6301	-0.71153	-0.71241	-0.0483017	2	-0.000737055	3.44106e-05
2	0	0	1	1	25.6601	-0.714529	-0.71541	-0.0488296	2	-0.00073852	3.49332e-05
2	0	0	1	1	25.6901	-0.717528	-0.718431	-0.0493461	2	-0.000740001	3.54518e-05
2	0	0	1	1	25.7201	-0.720527	-0.721439	-0.0499332	2	-0.000741499	3.60238e-05
2	0	0	1	1	25.75	-0.723521	-0.724432	-0.0505602	2	-0.00074301	3.66274e-05
2	0	0	0	1	25.7799	-0.726525	-0.727427	-0.0511781	2	-0.00074454	3.72283e-05
2	0	0	0	1	25.8099	-0.729524	-0.730431	-0.0517978	2	-0.000746093	3.78347e-05
2	0	0	0	1	25.8399	-0.732523	-0.733424	-0.0525044	2	-0.000747667	3.8508e-05
2	0	0	0	1	25.8699	-0.735522	-0.736429	-0.0532089	2	-0.000749261	3.91846e-05
2	0	0	0	1	25.8999	-0.738521	-0.739439	-0.0539495	2	-0.000750876	3.98924e-05
2	0	0	0	1	25.9299	-0.741519	-0.742414	-0.0547129	2	-0.000752514	4.06196e-05
2	0	0	0	1	25.9599	-0.744518	-0.745434	-0.0555025	2	-0.000754175	4.13735e-05
2	0	0	0	1	25.9899	-0.747517	-0.748406	-0.05632	2	-0.000755861	4.21502e-05
2	0	0	0	1	26.0199	-0.750516	-0.751417	-0.0572241	2	-0.000757572	4.29991e-05
2	0	0	0	1	26.0499	-0.753515	-0.754429	-0.0580841	2	-0.00075931	4.38203e-05
2	0	0	0	1	26.0799	-0.756514	-0.757427	-0.0590134	2	-0.000761075	4.46983e-05
2	0	0	0	1	26.1099	-0.759513	-0.760423	-0.0600137	2	-0.000762869	4.56358e-05
2	0	0	0	1	26.1399	-0.762512	-0.763424	-0.061054	2	-0.000764693	4.66101e-05
2	0	0	0	1	26.1699	-0.765511	-0.76643	-0.0621213	2	-0.000766549	4.76116e-05
2	0	0	0	1	26.1999	-0.76851	-0.76941	-0.0631405	2	-0.000768436	4.8581e-05
2	0	0	0	1	26.2299	-0.771509	-0.772409	-0.0643183	2	-0.000770358	4.96801e-05
2	0	0	0	1	26.2599	-0.774508	-0.775401	-0.0655233	2	-0.000772314	5.08068e-05
2	0	0	0	1	26.2899	-0.777507	-0.778425	-0.0667334	2	-0.000774307	5.1947e-05
2	0	0	1	1	26.3197	-0.780505	-0.781424	-0.0680854	2	-0.000776325	5.32035e-05
2	0	0	1	1	26.3497	-0.783504	-0.784408	-0.0694242	2	-0.000778396	5.44569e-05
2	0	0	1	1	26.3797	-0.786503	-0.787407	-0.0707922	2	-0.000780507	5.57423e-05
2	0	0	1	1	26.4097	-0.789502	-0.790416	-0.0722146	2	-0.00078266	5.70796e-05
2	0	0	1	1	26.4397	-0.792501	-0.793426	-0.0737101	2	-0.000784858	5.84835e-05
2	0	0	1	1	26.4697	-0.7955	-0.796406	-0.0752322	2	-0.0007871	5.99154e-05
2	0	0	1	1	26.4997	-0.798499	-0.799416	-0.0768442	2	-0.00078939	6.14304e-05
2	0	0	1	1	26.5297	-0.801498	-0.802408	-0.0785045	2	-0.000791728	6.29926e-05
2	0	0	1	1	26.5597	-0.804497	-0.805399	-0.0802129	2	-0.000794117	6.46034e-05
2	0	0	1	1	26.5897	-0.807496	-0.80841	-0.0819842	2	-0.000796558	6.62769e-05
2	0	0	1	1	26.6197	-0.810495	-0.811414	-0.083778	2	-0.000799053	6.79786e-05
2	0	0	1	1	26.6497	-0.813494	-0.814405	-0.0856869	2	-0.000801604	6.97839e-05
2	0	0	1	1	26.6797	-0.816493	-0.817421	-0.0876681	2	-0.000804212	7.16618e-05
2	0	0	1	1	26.7097	-0.819492	-0.820415	-0.0896488	2	-0.000806881	7.35493e-05
2	0	0	1	1	26.7397	-0.822491	-0.823401	-0.0917523	2	-0.00080961	7.5549e-05
2	0	0	1	1	26.7697	-0.825489	-0.826411	-0.0939098	2	-0.000812403	7.7608e-05
2	0	0	1	1	26.7997	-0.828488	-0.829412	-0.0961077	2	-0.000815262	7.97129e-05
2	0	0	1	1	26.8297	-0.831487	-0.832398	-0.0984593	2	-0.000818189	8.19573e-05
2	0	0	1	1	26.8597	-0.834486	-0.835418	-0.100837	2	-0.000821186	8.42413e-05
2	0	0	1	1	26.9205	-0.840584	-0.841471	-0.105425	2	-0.000827443	8.87124e-05
2	0	0	1	1	26.9505	-0.843583	-0.844473	-0.108061	2	-0.000830662	9.12543e-05
2	0	0	1	1	26.9805	-0.846582	-0.847447	-0.110808	2	-0.000833961	9.39038e-05
2	0	0	1	1	27.0105	-0.849581	-0.850461	-0.113567	2	-0.000837342	9.65846e-05
2	0	0	1	1	27.0405	-0.85258	-0.853465	-0.116484	2	-0.000840808	9.94146e-05
2	0	0	1	1	27.0705	-0.855579	-0.856463	-0.11947	2	-0.000844362	0.000102322
2	0	0	1	1	27.1005	-0.858578	-0.859464	-0.122531	2	-0.000848008	0.000105311
2	0	0	1	1	27.1305	-0.861576	-0.862465	-0.125746	2	-0.000851747	0.000108451
2	0	0	1	1	27.1605	-0.864575	-0.865452	-0.128975	2	-0.000855583	0.000111621
2	0	0	1	1	27.1905	-0.867574	-0.868447	-0.132339	2	-0.000859519	0.000114929
2	0	0	1	1	27.2205	-0.870573	-0.871441	-0.135859	2	-0.000863559	0.000118393
2	0	0	1	1	27.2505	-0.873572	-0.874435	-0.139493	2	-0.000867705	0.000121978
2	0	0	1	1	27.2805	-0.876571	-0.877443	-0.143104	2	-0.000871962	0.000125565
2	0	0	1	1	27.3105	-0.87957	-0.880444	-0.147054	2	-0.000876332	0.000129473
2	0	0	1	1	27.3405	-0.882569	-0.88344	-0.151094	2	-0.000880821	0.000133482
2	0	0	1	1	27.3705	-0.885568	-0.886438	-0.15517	2	-0.000885431	0.000137548
2	0	0	1	1	27.4005	-0.888567	-0.889427	-0.15946	2	-0.000890167	0.000141828
2	0	0	1	1	27.4304	-0.891561	-0.892429	-0.163884	2	-0.000895017	0.000146255
2	0	0	0	1	27.4603	-0.894565	-0.89545	-0.168413	2	-0.000900001	0.000150805
2	0	0	0	1	27.4903	-0.897564	-0.898435	-0.173051	2	-0.00090514	0.000155475
2	1	0	0	0	27.5154	-0.900013	-0.900872	-0.17691	2	-0.000909547	0.000159374
2	1	0	1	0	27.5409	-0.897464	-0.898333	-0.168424	2	-0.000913915	0.000151301
2	1	0	1	0	27.5709	-0.894465	-0.895346	-0.161733	2	-0.000918848	0.000144807
2	1	0	1	0	27.6008	-0.891457	-0.892331	-0.155541	2	-0.000923575	0.000138794
2	1	0	0	0	27.6307	-0.888467	-0.889341	-0.149988	2	-0.000928125	0.00013339
2	1	0	0	0	27.6607	-0.885468	-0.88634	-0.144687	2	-0.000932528	0.000128242
2	1	0	0	0	27.6907	-0.882469	-0.883339	-0.139605	2	-0.000936775	0.000123319
2	1	0	0	0	27.7207	-0.87947	-0.880335	-0.134738	2	-0.000940873	0.000118615
2	1	0	0	0	27.7507	-0.876471	-0.877343	-0.130106	2	-0.000944828	0.000114147
2	1	0	0	0	27.7807	-0.873472	-0.874353	-0.125667	2	-0.000948648	0.000109877
2	1	0	0	0	27.8107	-0.870473	-0.871353	-0.12139	2	-0.000952337	0.000105773
2	1	0	0	0	27.8407	-0.867474	-0.868344	-0.117234	2	-0.0009559	0.0001018
2	1	0	0	0	27.8707	-0.864475	-0.865341	-0.113308	2	-0.000959341	9.805e-05
2	1	0	0	0	27.9007	-0.861476	-0.862363	-0.109456	2	-0.000962667	9.43907e-05
2	1	0	0	0	27.9307	-0.858478	-0.859365	-0.105847	2	-0.00096588	9.09609e-05
2	1	0	0	0	27.9607	-0.855479	-0.856363	-0.102325	2	-0.000968985	8.7627e-05
2	1	0	0	0	27.9907	-0.85248	-0.853361	-0.0989287	2	-0.000971986	8.44219e-05
2	1	0	0	0	28.0207	-0.849481	-0.850348	-0.0955779	2	-0.000974886	8.12744e-05
2	1	0	0	0	28.0507	-0.846482	-0.847358	-0.0923789	2	-0.00097769	7.8278e-05
2	1	0	0	0	28.0807	-0.843483	-0.844356	-0.0893682	2	-0.0009804	7.54585e-05
2	1	0	0	0	28.1107	-0.840484	-0.841355	-0.0864588	2	-0.000983021	7.27426e-05
2	1	0	0	0	28.1407	-0.837485	-0.838367	-0.0835492	2	-0.000985555	7.00449e-05
2	1	0	1	0	28.1705	-0.834486	-0.835374	-0.0808385	2	-0.000987989	6.75304e-05
2	1	0	1	0	28.2005	-0.831487	-0.832377	-0.0782265	2	-0.000990358	6.5114e-05
2	1	0	1	0	28.2305	-0.828488	-0.829371	-0.0756195	2	-0.000992649	6.27166e-05
2	1	0	1	0	28.2605	-0.825489	-0.826359	-0.073133	2	-0.000994864	6.04341e-05
2	1	0	1	0	28.2905	-0.82249	-0.823352	-0.0707934	2	-0.000997008	5.82879e-05
2	1	0	1	0	28.3205	-0.819492	-0.820375	-0.0685096	2	-0.000999081	5.62035e-05
2	1	0	1	0	28.3505	-0.816493	-0.817336	-0.0662815	2	-0.00100109	5.41742e-05
2	1	0	1	0	28.3805	-0.813494	-0.814346	-0.0642195	2	-0.00100303	5.22969e-05
2	1	0	1	0	28.4105	-0.810495	-0.811343	-0.0620891	2	-0.00100491	5.03755e-05
2	1	0	1	0	28.4405	-0.807496	-0.808347	-0.0601022	2	-0.00100672	4.85834e-05
2	1	0	1	0	28.4705	-0.804497	-0.805348	-0.0581339	2	-0.00100848	4.6818e-05
2	1	0	1	0	28.5005	-0.801498	-0.802331	-0.0563187	2	-0.00101018	4.51862e-05
2	1	0	1	0	28.5305	-0.798499	-0.799353	-0.0545004	2	-0.00101183	4.35651e-05
2	1	0	1	0	28.5605	-0.7955	-0.796355	-0.0528182	2	-0.00101342	4.2062e-05
2	1	0	1	0	28.5905	-0.792501	-0.793348	-0.0511509	2	-0.00101497	4.05804e-05
2	1	0	1	0	28.6205	-0.789502	-0.790363	-0.0496081	2	-0.00101646	3.92084e-05
2	1	0	1	0	28.6505	-0.786503	-0.787359	-0.0480287	2	-0.00101791	3.78158e-05
2	1	0	1	0	28.6805	-0.783504	-0.784333	-0.04652	2	-0.00101932	3.64872e-05
2	1	0	1	0	28.7105	-0.780505	-0.78135	-0.0451313	2	-0.00102068	3.52633e-05
2	1	0	1	0	28.7713	-0.774408	-0.775227	-0.0423038	2	-0.00102333	3.27951e-05
2	1	0	1	0	28.8013	-0.771409	-0.772239	-0.0410075	2	-0.00102457	3.16676e-05
2	1	0	1	0	28.8313	-0.76841	-0.769258	-0.0397945	2	-0.00102578	3.06122e-05
2	1	0	1	0	28.8613	-0.765411	-0.76626	-0.0385983	2	-0.00102694	2.95763e-05
2	1	0	1	0	28.8913	-0.762412	-0.763256	-0.0374273	2	-0.00102807	2.85666e-05
2	1	0	1	0	28.9213	-0.759413	-0.760274	-0.0363153	2	-0.00102917	2.76096e-05
2	1	0	1	0	28.9513	-0.756414	-0.757264	-0.0352883	2	-0.00103024	2.67226e-05
2	1	0	1	0	28.9813	-0.753415	-0.754261	-0.0342133	2	-0.00103127	2.58057e-05
2	1	0	1	0	29.0113	-0.750416	-0.751268	-0.0332503	2	-0.00103228	2.49799e-05
2	1	0	1	0	29.0413	-0.747417	-0.748269	-0.0323182	2	-0.00103325	2.41827e-05
2	1	0	1	0	29.0713	-0.744418	-0.745264	-0.0314177	2	-0.0010342	2.34145e-05
2	1	0	1	0	29.1013	-0.741419	-0.742273	-0.0305296	2	-0.00103512	2.26613e-05
2	1	0	1	0	29.1313	-0.738421	-0.739278	-0.0296789	2	-0.00103601	2.19409e-05
2	1	0	1	0	29.1613	-0.735422	-0.736279	-0.028875	2	-0.00103688	2.12601e-05
2	1	0	1	0	29.1913	-0.732423	-0.733291	-0.0281056	2	-0.00103773	2.06096e-05
2	1	0	1	0	29.2213	-0.729424	-0.730268	-0.027385	2	-0.00103855	1.99984e-05
2	1	0	1	0	29.2513	-0.726425	-0.727275	-0.0266135	2	-0.00103936	1.93554e-05
2	1	0	1	0	29.2812	-0.723417	-0.724254	-0.0259378	2	-0.00104013	1.87856e-05
2	1	0	0	0	29.3111	-0.720427	-0.721272	-0.0253105	2	-0.00104089	1.82558e-05
2	1	0	0	0	29.3411	-0.717428	-0.718268	-0.0246774	2	-0.00104163	1.7725e-05
2	1	0	0	0	29.3711	-0.714429	-0.715266	-0.0240794	2	-0.00104236	1.72232e-05
2	1	0	0	0	29.4011	-0.71143	-0.712277	-0.0234957	2	-0.00104306	1.67354e-05
2	1	0	0	0	29.4311	-0.708431	-0.709265	-0.022913	2	-0.00104375	1.62514e-05
2	1	0	0	0	29.4611	-0.705432	-0.706263	-0.0224093	2	-0.00104442	1.58269e-05
2	1	0	0	0	29.4911	-0.702433	-0.703264	-0.0218479	2	-0.00104507	1.53648e-05
2	1	0	0	0	29.5211	-0.699434	-0.70027	-0.0213853	2	-0.00104571	1.49755e-05
2	1	0	0	0	29.5511	-0.696436	-0.697259	-0.020903	2	-0.00104634	1.45748e-05
2	1	0	0	0	29.5811	-0.693437	-0.694274	-0.0204477	2	-0.00104695	1.41963e-05
2	1	0	0	0	29.6111	-0.690438	-0.691277	-0.020002	2	-0.00104755	1.38269e-05
2	1	0	0	0	29.6411	-0.687439	-0.688274	-0.019624	2	-0.00104814	1.35067e-05
2	1	0	0	0	29.6711	-0.68444	-0.685301	-0.0192424	2	-0.00104871	1.31869e-05
2	1	0	0	0	29.7011	-0.681441	-0.682297	-0.018833	2	-0.00104927	1.28497e-05
2	1	0	0	0	29.7311	-0.678442	-0.679299	-0.0184575	2	-0.00104983	1.25382e-05
2	1	0	0	0	29.7611	-0.675443	-0.676287	-0.0181078	2	-0.00105037	1.22461e-05
2	1	0	0	0	29.7911	-0.672444	-0.673284	-0.0177567	2	-0.00105089	1.19553e-05
2	1	0	0	0	29.8211	-0.669445	-0.670284	-0.0174288	2	-0.00105141	1.16822e-05
2	1	0	1	0	29.8509	-0.666446	-0.667304	-0.0171649	2	-0.00105192	1.14542e-05
2	1	0	1	0	29.8809	-0.663447	-0.664302	-0.0168082	2	-0.00105242	1.11657e-05
2	1	0	1	0	29.9109	-0.660448	-0.661298	-0.0165269	2	-0.00105291	1.09292e-05
2	1	0	1	0	29.9409	-0.657449	-0.658308	-0.0162857	2	-0.0010534	1.0721e-05
2	1	0	1	0	29.9709	-0.654451	-0.655313	-0.0160443	2	-0.00105387	1.0514e-05
2	1	0	1	0	30.0009	-0.651452	-0.652308	-0.0157501	2	-0.00105434	1.02739e-05
2	1	0	1	0	30.0309	-0.648453	-0.649289	-0.0154785	2	-0.0010548	1.005e-05
2	1	0	1	0	30.0609	-0.645454	-0.646296	-0.0152344	2	-0.00105526	9.84592e-06
2	1	0	1	0	30.0909	-0.642455	-0.643314	-0.0150244	2	-0.0010557	9.66539e-06
2	1	0	1	0	30.1209	-0.639456	-0.640317	-0.0148121	2	-0.00105614	9.48443e-06
2	1	0	1	0	30.1509	-0.636457	-0.637311	-0.0146042	2	-0.00105657	9.30744e-06
2	1	0	1	0	30.1809	-0.633458	-0.634315	-0.0143915	2	-0.001057	9.12877e-06
2	1	0	1	0	30.2109	-0.630459	-0.631326	-0.0141959	2	-0.00105742	8.96225e-06
2	1	0	1	0	30.2409	-0.62746	-0.628309	-0.0139814	2	-0.00105783	8.78463e-06
2	1	0	1	0	30.2709	-0.624461	-0.625312	-0.0137855	2	-0.00105824	8.62026e-06
2	1	0	1	0	30.3009	-0.621462	-0.62229	-0.0135983	2	-0.00105864	8.46207e-06
2	1	0	1	0	30.3309	-0.618463	-0.619294	-0.0134151	2	-0.00105904	8.30788e-06
2	1	0	1	0	30.3609	-0.615464	-0.616315	-0.0132211	2	-0.00105943	8.14837e-06
2	1	0	1	0	30.3909	-0.612465	-0.613293	-0.0130727	2	-0.00105982	8.01737e-06
2	1	0	0	0	30.4207	-0.609467	-0.610296	-0.0128818	2	-0.0010602	7.8617e-06
2	1	0	0	0	30.4507	-0.606468	-0.6073	-0.0127166	2	-0.00106057	7.72281e-06
2	1	0	0	0	30.4807	-0.603469	-0.604303	-0.0125495	2	-0.00106094	7.58368e-06
2	1	0	0	0	30.5107	-0.60047	-0.601319	-0.0123772	2	-0.00106131	7.44265e-06
2	1	0	0	0	30.5407	-0.597471	-0.598296	-0.0122609	2	-0.00106167	7.33567e-06
2	1	0	0	0	30.5707	-0.594472	-0.595307	-0.0120829	2	-0.00106203	7.19302e-06
2	1	0	0	0	30.6007	-0.591473	-0.592292	-0.0119196	2	-0.00106238	7.05988e-06
2	1	0	0	0	30.6307	-0.588474	-0.589302	-0.0117761	2	-0.00106273	6.93968e-06
2	1	0	0	0	30.6607	-0.585475	-0.586305	-0.0116089	2	-0.00106307	6.80636e-06
2	1	0	0	0	30.6907	-0.582476	-0.583314	-0.0114588	2	-0.00106341	6.68405e-06
2	1	0	0	0	30.7207	-0.579477	-0.580318	-0.0113272	2	-0.00106374	6.57341e-06
2	1	0	0	0	30.7507	-0.576478	-0.577306	-0.0111508	2	-0.00106407	6.4374e-06
2	1	0	0	0	30.7807	-0.573479	-0.574309	-0.0110062	2	-0.00106439	6.32094e-06
2	1	0	0	0	30.8107	-0.570481	-0.57131	-0.0108581	2	-0.00106471	6.20334e-06
2	1	0	0	0	30.8407	-0.567482	-0.568325	-0.0107478	2	-0.00106503	6.10825e-06
2	1	0	0	0	30.8707	-0.564483	-0.565316	-0.010602	2	-0.00106534	5.99345e-06
2	1	0	0	0	30.9007	-0.561484	-0.562322	-0.0104413	2	-0.00106565	5.87138e-06
2	1	0	0	0	30.9307	-0.558485	-0.55932	-0.0103305	2	-0.00106595	5.77807e-06
2	1	0	1	0	30.9605	-0.555486	-0.556327	-0.01013	2	-0.00106625	5.63559e-06
2	1	0	1	0	30.9905	-0.552487	-0.553333	-0.0100417	2	-0.00106654	5.5564e-06
2	1	0	1	0	31.0205	-0.549488	-0.550328	-0.00983682	2	-0.00106683	5.41348e-06
2	1	0	1	0	31.0505	-0.546489	-0.547336	-0.00971373	2	-0.00106712	5.31667e-06
2	1	0	1	0	31.0805	-0.54349	-0.544301	-0.00954674	2	-0.0010674	5.1963e-06
2	1	0	1	0	31.1105	-0.540491	-0.541299	-0.00941685	2	-0.00106767	5.09733e-06
2	1	0	1	0	31.1405	-0.537492	-0.53831	-0.00927288	2	-0.00106795	4.99168e-06
2	1	0	1	0	31.1705	-0.534493	-0.535334	-0.00914838	2	-0.00106821	4.89744e-06
2	1	0	1	0	31.2005	-0.531494	-0.532301	-0.00897382	2	-0.00106848	4.77677e-06
2	1	0	1	0	31.2305	-0.528496	-0.529333	-0.00883464	2	-0.00106874	4.67647e-06
2	1	0	1	0	31.2605	-0.525497	-0.526329	-0.00868753	2	-0.00106899	4.5725e-06
2	1	0	1	0	31.2905	-0.522498	-0.523331	-0.0085517	2	-0.00106924	4.47537e-06
2	1	0	1	0	31.3205	-0.519499	-0.52033	-0.00837459	2	-0.00106949	4.35755e-06
2	1	0	1	0	31.3505	-0.5165	-0.517347	-0.00828352	2	-0.00106973	4.28545e-06
2	1	0	1	0	31.3805	-0.513501	-0.514329	-0.00811806	2	-0.00106997	4.17535e-06
2	1	0	1	0	31.4105	-0.510502	-0.511333	-0.00797175	2	-0.0010702	4.07622e-06
2	1	0	1	0	31.4405	-0.507503	-0.508338	-0.00778647	2	-0.00107043	3.95816e-06
2	1	0	1	0	31.4705	-0.504504	-0.505348	-0.00765823	2	-0.00107065	3.87007e-06
2	1	0	1	0	31.5005	-0.501505	-0.502322	-0.00751819	2	-0.00107087	3.77656e-06
2	1	0	0	0	31.5303	-0.498506	-0.499322	-0.00732388	2	-0.00107108	3.65697e-06
2	1	0	0	0	31.5603	-0.495507	-0.496333	-0.00720405	2	-0.00107129	3.57561e-06
2	1	0	0	0	31.5903	-0.492508	-0.493332	-0.00705271	2	-0.0010715	3.47933e-06
2	1	0	0	0	31.6203	-0.489509	-0.490339	-0.00685958	2	-0.0010717	3.36351e-06
2	1	0	0	0	31.6503	-0.486511	-0.487342	-0.00669948	2	-0.00107189	3.26494e-06
2	1	0	0	0	31.6803	-0.483512	-0.484347	-0.00656419	2	-0.00107208	3.17935e-06
2	1	0	0	0	31.7103	-0.480513	-0.481336	-0.00636777	2	-0.00107227	3.06504e-06
2	1	0	0	0	31.7403	-0.477514	-0.478349	-0.00621909	2	-0.00107245	2.97489e-06
2	1	0	0	0	31.7703	-0.474515	-0.475355	-0.00606821	2	-0.00107262	2.88455e-06
2	1	0	0	0	31.8003	-0.471516	-0.472323	-0.00585496	2	-0.00107279	2.76543e-06
2	1	0	0	0	31.8303	-0.468517	-0.469338	-0.0056742	2	-0.00107296	2.66312e-06
2	1	0	0	0	31.8603	-0.465518	-0.466355	-0.00549941	2	-0.00107312	2.56468e-06
2	1	0	0	0	31.8903	-0.462519	-0.463348	-0.00533203	2	-0.00107327	2.47059e-06
2	1	0	0	0	31.9203	-0.45952	-0.460341	-0.00515863	2	-0.00107342	2.37473e-06
2	1	0	0	0	31.9653	-0.455022	-0.455855	-0.00480951	2	-0.00107364	2.19244e-06
2	1	0	0	0	32.0103	-0.450523	-0.451338	-0.00431579	2	-0.00107385	1.94788e-06
2	1	0	0	0	32.0403	-0.447524	-0.448343	-0.00412963	2	-0.00107398	1.85149e-06
2	1	0	0	0	32.0703	-0.444526	-0.445348	-0.00393783	2	-0.0010741	1.7537e-06
2	1	0	1	0	32.1001	-0.441527	-0.442346	-0.00372986	2	-0.00107421	1.64989e-06
2	1	0	1	0	32.1301	-0.438528	-0.439337	-0.00353191	2	-0.00107432	1.5517e-06
2	1	0	1	0	32.1601	-0.435529	-0.436335	-0.00332351	2	-0.00107443	1.45017e-06
2	1	0	1	0	32.1901	-0.43253	-0.433344	-0.0031162	2	-0.00107452	1.35039e-06
2	1	0	1	0	32.2201	-0.429531	-0.430363	-0.00291356	2	-0.00107461	1.25389e-06
2	1	0	1	0	32.2501	-0.426532	-0.427356	-0.00269255	2	-0.0010747	1.15068e-06
2	1	0	1	0	32.2801	-0.423533	-0.424334	-0.00248118	2	-0.00107477	1.05285e-06
2	1	0	1	0	32.3101	-0.420534	-0.421338	-0.00226393	2	-0.00107485	9.53881e-07
2	1	0	1	0	32.3401	-0.417535	-0.418352	-0.00204943	2	-0.00107491	8.57382e-07
2	1	0	1	0	32.3701	-0.414536	-0.415356	-0.00185434	2	-0.00107497	7.70211e-07
2	1	0	1	0	32.4001	-0.411537	-0.412359	-0.00161377	2	-0.00107502	6.65452e-07
2	1	0	1	0	32.4301	-0.408538	-0.40936	-0.00140147	2	-0.00107506	5.73707e-07
2	1	0	1	0	32.4601	-0.405539	-0.406351	-0.00115611	2	-0.0010751	4.69785e-07
2	1	0	1	0	32.4901	-0.402541	-0.403342	-0.00093396	2	-0.00107513	3.76705e-07
2	1	0	1	0	32.5201	-0.399542	-0.40037	-0.000745424	2	-0.00107516	2.98445e-07
2	1	0	1	0	32.5501	-0.396543	-0.397346	-0.00050092	2	-0.00107518	1.99038e-07
2	1	0	1	0	32.5801	-0.393544	-0.394333	-0.000284873	2	-0.00107519	1.12335e-07
2	1	0	1	0	32.6101	-0.390545	-0.391332	-4.5345e-05	2	-0.00107519	1.77449e-08
2	1	0	0	0	32.6399	-0.387546	-0.388355	0.000209533	2	-0.00107519	8.13733e-08
2	1	0	0	0	32.6699	-0.384547	-0.385349	0.000409828	2	-0.00107518	1.57927e-07
2	1	0	0	0	32.6999	-0.381548	-0.382354	0.000640613	2	-0.00107516	2.44941e-07
2	1	0	0	0	32.7299	-0.378549	-0.379333	0.000861779	2	-0.00107514	3.26901e-07
2	1	0	0	0	32.7599	-0.37555	-0.376352	0.00107022	2	-0.00107511	4.02778e-07
2	1	0	0	0	32.7899	-0.372551	-0.373345	0.00131845	2	-0.00107508	4.92235e-07
2	1	0	0	0	32.8199	-0.369552	-0.370354	0.00155006	2	-0.00107503	5.7407e-07
2	1	0	0	0	32.8499	-0.366553	-0.367348	0.00176502	2	-0.00107498	6.48375e-07
2	1	0	0	0	32.8799	-0.363554	-0.364368	0.00196812	2	-0.00107493	7.17119e-07
2	1	0	0	0	32.9099	-0.360556	-0.361342	0.00220741	2	-0.00107486	7.9763e-07
2	1	0	0	0	32.9399	-0.357557	-0.358343	0.00243447	2	-0.00107479	8.72374e-07
2	1	0	0	0	32.9699	-0.354558	-0.355346	0.00264651	2	-0.00107472	9.40427e-07
2	1	0	0	0	32.9999	-0.351559	-0.352354	0.00287314	2	-0.00107463	1.01236e-06
2	1	0	0	0	33.0299	-0.34856	-0.349355	0.00309696	2	-0.00107454	1.08194e-06
2	1	0	0	0	33.0599	-0.345561	-0.346353	0.00330959	2	-0.00107445	1.14628e-06
2	1	0	0	0	33.0899	-0.342562	-0.343346	0.00353748	2	-0.00107434	1.21458e-06
2	1	0	0	0	33.1199	-0.339563	-0.340347	0.00377266	2	-0.00107423	1.28401e-06
2	1	0	0	0	33.1499	-0.336564	-0.337366	0.00397898	2	-0.00107412	1.34237e-06
2	1	0	0	0	33.1799	-0.333565	-0.334338	0.00420767	2	-0.00107399	1.40679e-06
2	1	0	1	0	33.2097	-0.330566	-0.331379	0.00444595	2	-0.00107387	1.47329e-06
2	1	0	1	0	33.2397	-0.327567	-0.328351	0.00467199	2	-0.00107373	1.53405e-06
2	1	0	1	0	33.2697	-0.324568	-0.32534	0.00487584	2	-0.00107358	1.58631e-06
2	1	0	1	0	33.2997	-0.321569	-0.322345	0.00511694	2	-0.00107343	1.64942e-06
2	1	0	1	0	33.3297	-0.318571	-0.31936	0.00536197	2	-0.00107328	1.7124e-06
2	1	0	1	0	33.3597	-0.315572	-0.316349	0.00557031	2	-0.00107311	1.76216e-06
2	1	0	1	0	33.3897	-0.312573	-0.313369	0.0058144	2	-0.00107294	1.82205e-06
2	1	0	1	0	33.4197	-0.309574	-0.31035	0.00606017	2	-0.00107276	1.88077e-06
2	1	0	1	0	33.4497	-0.306575	-0.307349	0.00628769	2	-0.00107258	1.93252e-06
2	1	0	1	0	33.4797	-0.303576	-0.304339	0.00653127	2	-0.00107239	1.98772e-06
2	1	0	1	0	33.5097	-0.300577	-0.301348	0.00679288	2	-0.00107219	2.04702e-06
2	1	0	1	0	33.5397	-0.297578	-0.298348	0.00703246	2	-0.00107198	2.09812e-06
2	1	0	1	0	33.5697	-0.294579	-0.295345	0.00727173	2	-0.00107176	2.14767e-06
2	1	0	1	0	33.5997	-0.29158	-0.292336	0.00754557	2	-0.00107154	2.20584e-06
2	1	0	1	0	33.6297	-0.288581	-0.289314	0.00783198	2	-0.00107131	2.2659e-06
2	1	0	1	0	33.6597	-0.285582	-0.286356	0.00807483	2	-0.00107107	2.31228e-06
2	1	0	1	0	33.6897	-0.282583	-0.283341	0.00835743	2	-0.00107082	2.368e-06
2	1	0	1	0	33.7197	-0.279585	-0.280366	0.00863087	2	-0.00107057	2.4198e-06
2	1	0	1	0	33.7496	-0.276595	-0.277364	0.00892592	2	-0.00107031	2.47573e-06
2	1	0	0	0	33.7795	-0.273587	-0.27436	0.00921844	2	-0.00107003	2.52917e-06
2	1	0	0	0	33.8095	-0.270588	-0.271374	0.0095124	2	-0.00106975	2.58142e-06
2	1	0	0	0	33.8395	-0.267589	-0.268368	0.00980899	2	-0.00106946	2.63242e-06
2	1	0	0	0	33.8695	-0.26459	-0.265354	0.0101295	2	-0.00106916	2.68789e-06
2	1	0	1	0	33.9305	-0.258492	-0.259297	0.0104961	2	-0.00106853	2.72161e-06
2	1	0	1	0	33.9605	-0.255493	-0.256301	0.0108553	2	-0.0010682	2.78224e-06
2	1	0	1	0	33.9905	-0.252494	-0.253303	0.0111631	2	-0.00106786	2.82766e-06
2	1	0	1	0	34.0205	-0.249495	-0.250279	0.0115067	2	-0.00106751	2.8799e-06
2	1	0	1	0	34.0505	-0.246496	-0.247304	0.0118313	2	-0.00106715	2.92592e-06
2	1	0	1	0	34.0805	-0.243497	-0.2443	0.0121472	2	-0.00106679	2.96757e-06
2	1	0	1	0	34.1105	-0.240498	-0.241287	0.0125311	2	-0.00106641	3.0236e-06
2	1	0	1	0	34.1405	-0.2375	-0.2383	0.0128434	2	-0.00106602	3.06059e-06
2	1	0	1	0	34.1705	-0.234501	-0.235305	0.0132207	2	-0.00106562	3.1109e-06
2	1	0	1	0	34.2005	-0.231502	-0.232282	0.0136148	2	-0.00106521	3.16246e-06
2	1	0	1	0	34.2305	-0.228503	-0.229306	0.0139344	2	-0.00106478	3.19523e-06
2	1	0	1	0	34.2605	-0.225504	-0.226312	0.0143605	2	-0.00106435	3.24995e-06
2	1	0	1	0	34.2905	-0.222505	-0.223306	0.01468	2	-0.00106391	3.27813e-06
2	1	0	0	0	34.3203	-0.219506	-0.220313	0.0150783	2	-0.00106345	3.32196e-06
2	1	0	0	0	34.3503	-0.216507	-0.217315	0.0154517	2	-0.00106299	3.35788e-06
2	1	0	0	0	34.3803	-0.213508	-0.214293	0.0158131	2	-0.00106251	3.38864e-06
2	1	0	0	0	34.4103	-0.210509	-0.211307	0.01619	2	-0.00106202	3.42108e-06
2	1	0	0	0	34.4403	-0.20751	-0.208317	0.0165746	2	-0.00106152	3.45277e-06
2	1	0	0	0	34.4703	-0.204511	-0.205298	0.0169314	2	-0.00106101	3.47599e-06
2	1	0	0	0	34.5003	-0.201512	-0.20229	0.0173384	2	-0.00106049	3.50737e-06
2	1	0	0	0	34.5303	-0.198513	-0.199291	0.0177028	2	-0.00105995	3.52801e-06
2	1	0	0	0	34.5603	-0.195515	-0.1963	0.0181374	2	-0.00105941	3.56037e-06
2	1	0	0	0	34.5903	-0.192516	-0.19331	0.0184785	2	-0.00105885	3.57207e-06
2	1	0	0	0	34.6203	-0.189517	-0.190308	0.0188727	2	-0.00105828	3.59162e-06
2	1	0	0	0	34.6503	-0.186518	-0.187301	0.0192797	2	-0.0010577	3.61112e-06
2	1	0	0	0	34.6803	-0.183519	-0.184287	0.0196474	2	-0.00105711	3.62077e-06
2	1	0	0	0	34.7103	-0.18052	-0.181306	0.0200409	2	-0.0010565	3.63353e-06
2	1	0	0	0	34.7403	-0.177521	-0.178313	0.0203512	2	-0.00105589	3.62888e-06
2	1	0	0	0	34.7703	-0.174522	-0.175321	0.0207597	2	-0.00105526	3.6396e-06
2	1	0	0	0	34.8003	-0.171523	-0.172319	0.0211216	2	-0.00105463	3.63965e-06
2	1	0	0	0	34.8303	-0.168524	-0.169328	0.0214333	2	-0.00105398	3.62926e-06
2	1	0	0	0	34.8603	-0.165525	-0.166312	0.021794	2	-0.00105332	3.62459e-06
2	1	0	1	0	34.8901	-0.162526	-0.163313	0.0220995	2	-0.00105266	3.60914e-06
2	1	0	1	0	34.9201	-0.159527	-0.160303	0.0224121	2	-0.00105198	3.59273e-06
2	1	0	1	0	34.9501	-0.156528	-0.157309	0.0226888	2	-0.0010513	3.56916e-06
2	1	0	1	0	34.9801	-0.15353	-0.15432	0.0229512	2	-0.0010506	3.54184e-06
2	1	0	1	0	35.0101	-0.150531	-0.151316	0.023202	2	-0.0010499	3.51083e-06
2	1	0	1	0	35.0401	-0.147532	-0.148324	0.0234567	2	-0.00104919	3.47919e-06
2	1	0	1	0	35.0701	-0.144533	-0.145305	0.0236681	2	-0.00104848	3.43911e-06
2	1	0	1	0	35.1001	-0.141534	-0.142321	0.0238323	2	-0.00104776	3.39183e-06
2	1	0	1	0	35.1301	-0.138535	-0.139323	0.0239697	2	-0.00104703	3.33953e-06
2	1	0	1	0	35.1601	-0.135536	-0.136319	0.0240651	2	-0.0010463	3.28053e-06
2	1	0	1	0	35.1901	-0.132537	-0.133311	0.0241364	2	-0.00104557	3.21765e-06
2	1	0	1	0	35.2201	-0.129538	-0.130323	0.0241972	2	-0.00104484	3.15345e-06
2	1	0	1	0	35.2501	-0.126539	-0.127334	0.0241726	2	-0.0010441	3.078e-06
2	1	0	1	0	35.2801	-0.12354	-0.124337	0.0241804	2	-0.00104337	3.00653e-06
2	1	0	1	0	35.3101	-0.120541	-0.121318	0.0240964	2	-0.00104263	2.92332e-06
2	1	0	1	0	35.3401	-0.117542	-0.118342	0.0240262	2	-0.0010419	2.84331e-06
2	1	0	1	0	35.3701	-0.114543	-0.115353	0.0238668	2	-0.00104118	2.7531e-06
2	1	0	1	0	35.4001	-0.111545	-0.112346	0.0236846	2	-0.00104045	2.66087e-06
2	1	0	1	0	35.43	-0.108552	-0.109325	0.0235783	2	-0.00103974	2.57769e-06
2	1	0	0	0	35.4599	-0.105547	-0.106339	0.0233069	2	-0.00103903	2.47843e-06
2	1	0	0	0	35.4899	-0.102548	-0.103337	0.0230927	2	-0.00103832	2.38633e-06
2	1	0	0	0	35.5199	-0.0995488	-0.100322	0.0228286	2	-0.00103763	2.2902e-06
2	1	0	0	0	35.5499	-0.0965499	-0.0973279	0.0225289	2	-0.00103694	2.19269e-06
2	1	0	0	0	35.5799	-0.093551	-0.0943303	0.0222269	2	-0.00103626	2.09667e-06
2	1	0	0	0	35.6099	-0.090552	-0.0913307	0.0219373	2	-0.00103559	2.00355e-06
2	1	0	0	0	35.6399	-0.0875531	-0.0883231	0.0216074	2	-0.00103493	1.90844e-06
2	1	0	0	0	35.6699	-0.0845542	-0.0853227	0.0212663	2	-0.00103427	1.8145e-06
2	1	0	0	0	35.6999	-0.0815553	-0.0823228	0.0209146	2	-0.00103363	1.72175e-06
2	1	0	0	0	35.7299	-0.0785563	-0.0793467	0.0205656	2	-0.001033	1.63181e-06
2	1	0	0	0	35.7599	-0.0755574	-0.0763495	0.0202099	2	-0.00103238	1.54301e-06
2	1	0	0	0	35.7899	-0.0725585	-0.0733485	0.0199082	2	-0.00103177	1.46024e-06
2	1	0	0	0	35.8199	-0.0695595	-0.0703343	0.0195509	2	-0.00103117	1.3751e-06
2	1	0	0	0	35.8499	-0.0665606	-0.0673507	0.0191689	2	-0.00103058	1.29104e-06
2	1	0	0	0	35.8799	-0.0635617	-0.0643428	0.0189006	2	-0.00103	1.21612e-06
2	1	0	0	0	35.9099	-0.0605627	-0.0613388	0.0185768	2	-0.00102943	1.13948e-06
2	1	0	0	0	35.9399	-0.0575638	-0.058341	0.0182883	2	-0.00102887	1.06696e-06
2	1	0	0	0	35.9699	-0.0545649	-0.0553425	0.0179867	2	-0.00102832	9.95429e-07
2	1	0	1	0	35.9957	-0.0519658	-0.0527215	0.0177625	2	-0.00102785	9.36466e-07