File: TAP_Report/Data/Res_growth/mg6_3_2.mpt
EC-Lab ASCII FILE
Nb header lines : 54

Cyclic Voltammetry

Run on channel : 1 (SN 0696)
User :
Electrode connection : standard
Ewe ctrl range : min = -2.50 V, max = 2.50 V
Ewe,I filtering : 50 kHz
Channel : Grounded
Acquisition started on : 01/18/2017 14:33:00
Saved on :
	File : mg6_3.mpr
	Directory : H:\EC-Lab\Data\Resazurin Bulk 18-1-17\
	Host : 144.32.136.43
Device : SP-300 (SN 0182)
Address : USB
EC-Lab for windows v10.44 (software)
Internet server v10.44 (firmware)
Command interpretor v10.44 (firmware)
Electrode material :
Initial state :
Electrolyte :
Comments :
Cable : standard
Reference electrode : SCE Saturated Calomel Electrode (0.241 V)
Electrode surface area : 0.001 cm²
Characteristic mass : 0.001 g
Equivalent Weight : 0.000 g/eq.
Density : 0.000 g/cm3
Ei (V)              0.000
vs.                 Eoc
dE/dt               100.000
dE/dt unit          mV/s
E1 (V)              0.000
vs.                 Ref
Step percent        50
N                   10
E range min (V)     -2.500
E range max (V)     2.500
I Range             Auto
I Range min         Unset
I Range max         Unset
I Range init        Unset
Bandwidth           8
E2 (V)              -0.900
vs.                 Ref
nc cycles           2
Reverse Scan        1
Ef (V)              0.000
vs.                 Eoc

mode	ox/red	error	control changes	counter inc.	time/s	control/V	Ewe/V	<I>/mA	cycle number	(Q-Qo)/C	Capacitance charge/µF	Capacitance discharge/µF	P/W
2	1	0	1	1	17.9986	-0.0758073	-0.0762319	0.024097	2	-0.000545905	0.000000000000000E+000	0.000000000000000E+000	1.83696e-06
2	1	0	0	1	18.0341	-0.0722586	-0.07261	0.0239771	2	-0.000545038	246.414	0.000000000000000E+000	1.74098e-06
2	1	0	0	1	18.0741	-0.06826	-0.0686369	0.023549	2	-0.000544079	242.279	0.000000000000000E+000	1.61633e-06
2	1	0	0	1	18.1141	-0.0642614	-0.0646356	0.0230144	2	-0.000543138	238.769	0.000000000000000E+000	1.48755e-06
2	1	0	0	1	18.1541	-0.0602629	-0.0606354	0.0225416	2	-0.000542216	235.809	0.000000000000000E+000	1.36682e-06
2	1	0	0	1	18.1941	-0.0562643	-0.0566415	0.0220772	2	-0.000541314	233.152	0.000000000000000E+000	1.25049e-06
2	1	0	0	1	18.2341	-0.0522657	-0.0526196	0.0215994	2	-0.000540432	230.329	0.000000000000000E+000	1.13655e-06
2	1	0	0	1	18.2741	-0.0482671	-0.0486369	0.0211218	2	-0.000539569	227.943	0.000000000000000E+000	1.0273e-06
2	1	0	0	1	18.3141	-0.0442686	-0.0446517	0.0206856	2	-0.000538724	225.561	0.000000000000000E+000	9.23646e-07
2	1	0	0	1	18.3541	-0.04027	-0.0406417	0.0201718	2	-0.000537897	223.031	0.000000000000000E+000	8.19815e-07
2	1	0	0	1	18.3941	-0.0362714	-0.0366188	0.0197812	2	-0.000537088	220.516	0.000000000000000E+000	7.24364e-07
2	1	0	0	1	18.4341	-0.0322729	-0.0326569	0.0193789	2	-0.000536295	218.378	0.000000000000000E+000	6.32854e-07
2	1	0	0	1	18.4741	-0.0282743	-0.0286514	0.0190055	2	-0.000535517	216.087	0.000000000000000E+000	5.44532e-07
2	1	0	0	1	18.5141	-0.0242757	-0.0246518	0.0186827	2	-0.000534754	213.913	0.000000000000000E+000	4.60562e-07
2	1	0	0	1	18.554	-0.0202771	-0.0206361	0.018347	2	-0.000534006	211.711	0.000000000000000E+000	3.7861e-07
2	1	0	1	1	18.5939	-0.0162786	-0.0166489	0.0180398	2	-0.000533271	209.695	0.000000000000000E+000	3.00344e-07
2	1	0	1	1	18.6339	-0.01228	-0.0126425	0.0177907	2	-0.000532545	207.737	0.000000000000000E+000	2.24919e-07
2	1	0	1	1	18.6739	-0.00828143	-0.00865204	0.0175453	2	-0.000531829	205.905	0.000000000000000E+000	1.51803e-07
2	1	0	1	1	18.7139	-0.00428286	-0.00466748	0.0172846	2	-0.000531124	204.141	0.000000000000000E+000	8.06757e-08
2	1	0	1	1	18.7524	-0.000434237	-0.000822816	0.0171461	2	-0.000530453	202.506	0.000000000000000E+000	1.41081e-08
2	0	0	0	1	18.7825	-0.00258347	-0.00301562	0.0132521	2	-0.000530021	214.426	0.000000000000000E+000	3.99634e-08
2	0	0	0	1	18.8225	-0.00658204	-0.00701905	0.011623	2	-0.000529536	233.862	0.000000000000000E+000	8.15826e-08
2	0	0	0	1	18.8625	-0.0105806	-0.0110083	0.0104528	2	-0.000529106	254.825	0.000000000000000E+000	1.15067e-07
2	0	0	0	1	18.9025	-0.0145792	-0.015013	0.00951228	2	-0.000528718	277.92	0.000000000000000E+000	1.42808e-07
2	0	0	0	1	18.9425	-0.0185778	-0.0190024	0.00869088	2	-0.000528365	303.558	0.000000000000000E+000	1.65148e-07
2	0	0	1	1	18.9823	-0.0225763	-0.0230048	0.0079846	2	-0.000528044	332.523	0.000000000000000E+000	1.83684e-07
2	0	0	1	1	19.0223	-0.0265749	-0.0270044	0.00733475	2	-0.000527747	365.692	0.000000000000000E+000	1.98071e-07
2	0	0	1	1	19.0623	-0.0305735	-0.0310121	0.00677496	2	-0.000527475	404.28	0.000000000000000E+000	2.10106e-07
2	0	0	1	1	19.1023	-0.034572	-0.0350072	0.00620025	2	-0.000527225	449.698	0.000000000000000E+000	2.17053e-07
2	0	0	1	1	19.1423	-0.0385706	-0.0390126	0.00577175	2	-0.000526995	504.472	0.000000000000000E+000	2.25171e-07
2	0	0	1	1	19.1823	-0.0425692	-0.043012	0.00529348	2	-0.000526784	571.783	0.000000000000000E+000	2.27683e-07
2	0	0	1	1	19.2223	-0.0465677	-0.0470018	0.00489596	2	-0.00052659	656.727	0.000000000000000E+000	2.30119e-07
2	0	0	0	1	19.2933	-0.0536652	-0.0540856	0.00396987	2	-0.000526269	880.346	0.000000000000000E+000	2.14713e-07
2	0	0	0	1	19.3333	-0.0576638	-0.058103	0.00360402	2	-0.000526118	1083.67	0.000000000000000E+000	2.09404e-07
2	0	0	0	1	19.3733	-0.0616624	-0.0620943	0.00326343	2	-0.000525982	1399.19	0.000000000000000E+000	2.02641e-07
2	0	0	0	1	19.4133	-0.0656609	-0.066116	0.00293709	2	-0.000525858	1967.51	0.000000000000000E+000	1.94189e-07
2	0	0	0	1	19.4533	-0.0696595	-0.0701175	0.00261356	2	-0.000525748	3273.03	0.000000000000000E+000	1.83256e-07
2	0	0	0	1	19.4933	-0.0736581	-0.0740997	0.0023279	2	-0.000525649	9431.8	0.000000000000000E+000	1.72497e-07
2	0	0	1	1	19.5331	-0.0776566	-0.0781	0.00204744	2	-0.000525563	10810.7	0.000000000000000E+000	1.59905e-07
2	0	0	1	1	19.5731	-0.0816552	-0.0820886	0.00176095	2	-0.000525488	3460.93	0.000000000000000E+000	1.44554e-07
2	0	0	1	1	19.6131	-0.0856538	-0.0860827	0.00147684	2	-0.000525423	2064.09	0.000000000000000E+000	1.2713e-07
2	0	0	1	1	19.6531	-0.0896524	-0.0900916	0.00121574	2	-0.00052537	1470.83	0.000000000000000E+000	1.09528e-07
2	0	0	1	1	19.6931	-0.0936509	-0.0940842	0.000957217	2	-0.000525327	1144.22	0.000000000000000E+000	9.0059e-08
2	0	0	1	1	19.7331	-0.0976495	-0.098104	0.000683734	2	-0.000525295	935.361	0.000000000000000E+000	6.7077e-08
2	0	0	1	1	19.7731	-0.101648	-0.102101	0.000414848	2	-0.000525273	791.656	0.000000000000000E+000	4.23563e-08
2	0	0	1	1	19.8131	-0.105647	-0.10609	0.000172375	2	-0.000525262	686.254	0.000000000000000E+000	1.82873e-08
2	0	0	1	1	19.8531	-0.109645	-0.110099	-8.71556e-05	2	-0.00052526	643.049	0.913096	9.59572e-09
2	0	0	1	1	19.8931	-0.113644	-0.114108	-0.00034891	2	-0.000525269	643.049	2.08908	3.98133e-08
2	0	0	1	1	19.9331	-0.117642	-0.118123	-0.000592661	2	-0.000525287	643.049	3.32735	7.0007e-08
2	0	0	1	1	19.9731	-0.121641	-0.122088	-0.000825198	2	-0.000525316	643.049	4.5685	1.00747e-07
2	0	0	1	1	20.0131	-0.125639	-0.126083	-0.00110613	2	-0.000525355	643.049	5.85068	1.39464e-07
2	0	0	1	1	20.0531	-0.129638	-0.130074	-0.0013593	2	-0.000525404	643.049	7.12245	1.76811e-07
2	0	0	0	1	20.0929	-0.133637	-0.134061	-0.00160665	2	-0.000525463	643.049	8.4045	2.15388e-07
2	0	0	0	1	20.1329	-0.137635	-0.138091	-0.00186519	2	-0.000525533	643.049	9.6838	2.57566e-07
2	0	0	0	1	20.1729	-0.141634	-0.142078	-0.00215135	2	-0.000525614	643.049	10.9953	3.0566e-07
2	0	0	0	1	20.2129	-0.145632	-0.146091	-0.00240176	2	-0.000525706	643.049	12.3002	3.50875e-07
2	0	0	0	1	20.2529	-0.149631	-0.150075	-0.00268177	2	-0.000525808	643.049	13.6283	4.02466e-07
2	0	0	0	1	20.2929	-0.153629	-0.154081	-0.00297617	2	-0.000525922	643.049	14.9697	4.58571e-07
2	0	0	0	1	20.3329	-0.157628	-0.15809	-0.00326689	2	-0.000526047	643.049	16.3266	5.16463e-07
2	0	0	0	1	20.3729	-0.161627	-0.162074	-0.0035673	2	-0.000526184	643.049	17.7024	5.78167e-07
2	0	0	0	1	20.4129	-0.165625	-0.166091	-0.00386652	2	-0.000526333	643.049	19.0923	6.42192e-07
2	0	0	0	1	20.4529	-0.169624	-0.170094	-0.00416998	2	-0.000526495	643.049	20.5014	7.0929e-07
2	0	0	0	1	20.4929	-0.173622	-0.174088	-0.00449376	2	-0.000526668	643.049	21.9314	7.82308e-07
2	0	0	0	1	20.5329	-0.177621	-0.178104	-0.00481263	2	-0.000526854	643.049	23.3726	8.57148e-07
2	0	0	0	1	20.5729	-0.181619	-0.182089	-0.00512447	2	-0.000527054	643.049	24.8397	9.33108e-07
2	0	0	0	1	20.6129	-0.185618	-0.186096	-0.00545829	2	-0.000527266	643.049	26.3163	1.01576e-06
2	0	0	1	1	20.6527	-0.189617	-0.19009	-0.00578574	2	-0.00052749	643.049	27.8068	1.09981e-06
2	0	0	1	1	20.6927	-0.193615	-0.194091	-0.00613956	2	-0.000527729	643.049	29.3239	1.19163e-06
2	0	0	1	1	20.7327	-0.197614	-0.198099	-0.00644241	2	-0.000527981	643.049	30.8475	1.27623e-06
2	0	0	1	1	20.7727	-0.201612	-0.202102	-0.00680045	2	-0.000528246	643.049	32.3862	1.37439e-06
2	0	0	1	1	20.8127	-0.205611	-0.206093	-0.0071132	2	-0.000528525	643.049	33.9381	1.46598e-06
2	0	0	1	1	20.8527	-0.209609	-0.21011	-0.00743138	2	-0.000528816	643.049	35.4864	1.56141e-06
2	0	0	1	1	20.8927	-0.213608	-0.214105	-0.0077705	2	-0.000529121	643.049	37.05	1.66371e-06
2	0	0	1	1	20.9327	-0.217607	-0.218104	-0.00807223	2	-0.000529438	643.049	38.6131	1.76058e-06
2	0	0	1	1	20.9727	-0.221605	-0.222108	-0.00839479	2	-0.000529768	643.049	40.1763	1.86455e-06
2	0	0	1	1	21.0127	-0.225604	-0.226121	-0.00871589	2	-0.000530111	643.049	41.7336	1.97085e-06
2	0	0	1	1	21.0527	-0.229602	-0.230093	-0.00901332	2	-0.000530465	643.049	43.3025	2.0739e-06
2	0	0	1	1	21.0927	-0.233601	-0.234086	-0.00929109	2	-0.000530831	643.049	44.857	2.17491e-06
2	0	0	1	1	21.1327	-0.237599	-0.238091	-0.00956614	2	-0.000531209	643.049	46.3991	2.27761e-06
2	0	0	1	1	21.1727	-0.241598	-0.242101	-0.00985425	2	-0.000531598	643.049	47.9321	2.38572e-06
2	0	0	0	1	21.2125	-0.245597	-0.2461	-0.0101265	2	-0.000531996	643.049	49.4458	2.49214e-06
2	0	0	1	1	21.2835	-0.252694	-0.253163	-0.0103228	2	-0.000532729	643.049	52.0736	2.61334e-06
2	0	0	1	1	21.3235	-0.256693	-0.257148	-0.0105341	2	-0.000533157	643.049	53.5055	2.70881e-06
2	0	0	1	1	21.3635	-0.260691	-0.26116	-0.010784	2	-0.000533594	643.049	54.9132	2.81636e-06
2	0	0	1	1	21.4035	-0.26469	-0.265149	-0.0110525	2	-0.000534041	643.049	56.3189	2.93056e-06
2	0	0	1	1	21.4435	-0.268688	-0.26916	-0.0112799	2	-0.000534497	643.049	57.7058	3.0361e-06
2	0	0	1	1	21.4835	-0.272687	-0.273145	-0.0114815	2	-0.000534963	643.049	59.0849	3.13611e-06
2	0	0	1	1	21.5235	-0.276686	-0.27715	-0.0117426	2	-0.000535437	643.049	60.4518	3.25445e-06
2	0	0	1	1	21.5635	-0.280684	-0.281149	-0.0119247	2	-0.000535921	643.049	61.8038	3.35261e-06
2	0	0	1	1	21.6035	-0.284683	-0.285148	-0.0121872	2	-0.000536413	643.049	63.1489	3.47516e-06
2	0	0	1	1	21.6435	-0.288681	-0.289142	-0.0124103	2	-0.000536914	643.049	64.4832	3.58833e-06
2	0	0	1	1	21.6835	-0.29268	-0.293143	-0.0126098	2	-0.000537424	643.049	65.8049	3.69647e-06
2	0	0	1	1	21.7235	-0.296678	-0.297145	-0.0128301	2	-0.000537943	643.049	67.1136	3.81242e-06
2	0	0	0	1	21.7633	-0.300677	-0.301134	-0.013046	2	-0.000538468	643.049	68.407	3.92859e-06
2	0	0	0	1	21.8033	-0.304675	-0.305151	-0.013306	2	-0.000539005	643.049	69.699	4.06035e-06
2	0	0	0	1	21.8433	-0.308674	-0.309138	-0.0135056	2	-0.00053955	643.049	70.9915	4.17508e-06
2	0	0	0	1	21.8833	-0.312673	-0.313142	-0.0136997	2	-0.000540105	643.049	72.2739	4.28996e-06
2	0	0	0	1	21.9233	-0.316671	-0.317127	-0.0139405	2	-0.000540668	643.049	73.5534	4.42091e-06
2	0	0	0	1	21.9633	-0.32067	-0.321128	-0.0141727	2	-0.00054124	643.049	74.8224	4.55125e-06
2	0	0	0	1	22.0033	-0.324668	-0.325139	-0.0143916	2	-0.000541822	643.049	76.0844	4.67926e-06
2	0	0	0	1	22.0433	-0.328667	-0.329131	-0.0146799	2	-0.000542413	643.049	77.3497	4.83163e-06
2	0	0	0	1	22.0833	-0.332666	-0.33313	-0.0148738	2	-0.000543013	643.049	78.6094	4.95492e-06
2	0	0	0	1	22.1233	-0.336664	-0.337119	-0.0151286	2	-0.000543623	643.049	79.8683	5.10014e-06
2	0	0	0	1	22.1633	-0.340663	-0.341104	-0.0153482	2	-0.000544241	643.049	81.1265	5.23533e-06
2	0	0	0	1	22.2033	-0.344661	-0.345131	-0.0156111	2	-0.00054487	643.049	82.3701	5.38787e-06
2	0	0	0	1	22.2433	-0.34866	-0.34911	-0.0158109	2	-0.000545508	643.049	83.6267	5.51976e-06
2	0	0	0	1	22.2833	-0.352658	-0.353116	-0.0160903	2	-0.000546156	643.049	84.8765	5.68175e-06
2	0	0	1	1	22.3231	-0.356657	-0.357106	-0.0162884	2	-0.00054681	643.049	86.1115	5.81669e-06
2	0	0	1	1	22.3631	-0.360655	-0.361109	-0.0165227	2	-0.000547477	643.049	87.3549	5.96651e-06
2	0	0	1	1	22.4031	-0.364654	-0.365108	-0.0167874	2	-0.000548153	643.049	88.597	6.1292e-06
2	0	0	1	1	22.4431	-0.368653	-0.369102	-0.0169792	2	-0.000548838	643.049	89.8417	6.26706e-06
2	0	0	1	1	22.4831	-0.372651	-0.373111	-0.0172236	2	-0.000549533	643.049	91.0776	6.42631e-06
2	0	0	1	1	22.5231	-0.37665	-0.377101	-0.017451	2	-0.000550237	643.049	92.3145	6.58079e-06
2	0	0	1	1	22.5631	-0.380648	-0.381106	-0.0176868	2	-0.00055095	643.049	93.542	6.74055e-06
2	0	0	1	1	22.6031	-0.384647	-0.3851	-0.0179155	2	-0.000551672	643.049	94.7729	6.89925e-06
2	0	0	1	1	22.6431	-0.388645	-0.389104	-0.0181082	2	-0.000552402	643.049	95.9963	7.04598e-06
2	0	0	1	1	22.6831	-0.392644	-0.393119	-0.0183762	2	-0.000553142	643.049	97.2132	7.22402e-06
2	0	0	1	1	22.7231	-0.396643	-0.397095	-0.0185698	2	-0.00055389	643.049	98.4371	7.37396e-06
2	0	0	1	1	22.7631	-0.400641	-0.401097	-0.0187752	2	-0.000554646	643.049	99.6503	7.53067e-06
2	0	0	1	1	22.8031	-0.40464	-0.405082	-0.0189707	2	-0.000555411	643.049	100.863	7.68467e-06
2	0	0	1	1	22.8431	-0.408638	-0.409106	-0.0191893	2	-0.000556184	643.049	102.058	7.85045e-06
2	0	0	0	1	22.8829	-0.412637	-0.413099	-0.0194037	2	-0.000556961	643.049	103.248	8.01563e-06
2	0	0	0	1	22.9229	-0.416635	-0.417093	-0.0195994	2	-0.000557751	643.049	104.445	8.17478e-06
2	0	0	0	1	22.9629	-0.420634	-0.421109	-0.0197896	2	-0.000558548	643.049	105.628	8.33356e-06
2	0	0	0	1	23.0029	-0.424633	-0.425115	-0.0199614	2	-0.000559353	643.049	106.807	8.4859e-06
2	0	0	0	1	23.0429	-0.428631	-0.429104	-0.0201735	2	-0.000560166	643.049	107.988	8.65651e-06
2	0	0	0	1	23.0829	-0.43263	-0.433109	-0.0203431	2	-0.000560986	643.049	109.158	8.8108e-06
2	0	0	0	1	23.1229	-0.436628	-0.43709	-0.0205477	2	-0.000561814	643.049	110.331	8.98118e-06
2	0	0	0	1	23.1629	-0.440627	-0.441096	-0.020745	2	-0.00056265	643.049	111.488	9.15054e-06
2	0	0	0	1	23.2029	-0.444625	-0.445095	-0.0209562	2	-0.000563493	643.049	112.645	9.32751e-06
2	0	0	0	1	23.2429	-0.448624	-0.449091	-0.0211345	2	-0.000564344	643.049	113.798	9.4913e-06
2	0	0	0	1	23.2829	-0.452623	-0.453091	-0.0212973	2	-0.000565202	643.049	114.946	9.64964e-06
2	0	0	0	1	23.3229	-0.456621	-0.457095	-0.021467	2	-0.000566068	643.049	116.085	9.81246e-06
2	0	0	0	1	23.3629	-0.46062	-0.461112	-0.0216803	2	-0.00056694	643.049	117.216	9.99704e-06
2	0	0	0	1	23.4029	-0.464618	-0.465096	-0.0218814	2	-0.000567821	643.049	118.353	1.0177e-05
2	0	0	1	1	23.4427	-0.468617	-0.469092	-0.0220543	2	-0.000568704	643.049	119.468	1.03455e-05
2	0	0	1	1	23.4827	-0.472616	-0.473083	-0.0222369	2	-0.000569599	643.049	120.593	1.05199e-05
2	0	0	1	1	23.5227	-0.476614	-0.477097	-0.0224112	2	-0.000570502	643.049	121.707	1.06923e-05
2	0	0	1	1	23.5627	-0.480613	-0.481078	-0.0226037	2	-0.000571411	643.049	122.826	1.08741e-05
2	0	0	1	1	23.6027	-0.484611	-0.485065	-0.0227591	2	-0.000572328	643.049	123.937	1.10396e-05
2	0	0	1	1	23.6427	-0.48861	-0.489085	-0.0229556	2	-0.000573252	643.049	125.035	1.12272e-05
2	0	0	1	1	23.6827	-0.492608	-0.493079	-0.0231165	2	-0.000574184	643.049	126.137	1.13982e-05
2	0	0	1	1	23.7227	-0.496607	-0.497075	-0.0233241	2	-0.000575122	643.049	127.233	1.15938e-05
2	0	0	1	1	23.7627	-0.500606	-0.501089	-0.0235171	2	-0.000576068	643.049	128.321	1.17842e-05
2	0	0	1	1	23.8027	-0.504604	-0.505072	-0.0236793	2	-0.000577021	643.049	129.415	1.19597e-05
2	0	0	1	1	23.8427	-0.508603	-0.509077	-0.023841	2	-0.000577982	643.049	130.499	1.21369e-05
2	0	0	1	1	23.8827	-0.512601	-0.513086	-0.0240131	2	-0.00057895	643.049	131.578	1.23208e-05
2	0	0	1	1	23.9227	-0.5166	-0.517073	-0.0242181	2	-0.000579925	643.049	132.66	1.25226e-05
2	0	0	1	1	23.9627	-0.520598	-0.521084	-0.0244448	2	-0.000580907	643.049	133.733	1.27378e-05
2	0	0	0	1	24.0025	-0.524597	-0.525068	-0.0246164	2	-0.000581892	643.049	134.801	1.29253e-05
2	0	0	0	1	24.0425	-0.528596	-0.529088	-0.0247943	2	-0.00058289	643.049	135.866	1.31184e-05
2	0	0	0	1	24.0825	-0.532594	-0.533067	-0.0249946	2	-0.000583894	643.049	136.94	1.33238e-05
2	0	0	0	1	24.1225	-0.536593	-0.537076	-0.0251185	2	-0.000584907	643.049	138.002	1.34906e-05
2	0	0	0	1	24.1625	-0.540591	-0.541088	-0.0253361	2	-0.000585927	643.049	139.06	1.3709e-05
2	0	0	0	1	24.2025	-0.54459	-0.545069	-0.0255538	2	-0.000586954	643.049	140.128	1.39286e-05
2	0	0	0	1	24.2425	-0.548588	-0.549067	-0.0257758	2	-0.00058799	643.049	141.187	1.41527e-05
2	0	0	0	1	24.2825	-0.552587	-0.553063	-0.0259309	2	-0.000589034	643.049	142.246	1.43414e-05
2	0	0	0	1	24.3225	-0.556585	-0.557057	-0.026185	2	-0.000590086	643.049	143.308	1.45865e-05
2	0	0	0	1	24.3625	-0.560584	-0.561049	-0.0263866	2	-0.000591146	643.049	144.369	1.48042e-05
2	0	0	0	1	24.4025	-0.564583	-0.565063	-0.0266171	2	-0.000592215	643.049	145.425	1.50404e-05
2	0	0	0	1	24.4425	-0.568581	-0.569061	-0.0267875	2	-0.000593293	643.049	146.486	1.52437e-05
2	0	0	0	1	24.4825	-0.57258	-0.573054	-0.0270677	2	-0.00059438	643.049	147.55	1.55113e-05
2	0	0	0	1	24.5225	-0.576578	-0.577057	-0.027279	2	-0.000595476	643.049	148.613	1.57415e-05
2	0	0	1	1	24.5623	-0.580577	-0.581049	-0.0275326	2	-0.000596577	643.049	149.67	1.59978e-05
2	0	0	1	1	24.6023	-0.584576	-0.585044	-0.027833	2	-0.000597693	643.049	150.742	1.62835e-05
2	0	0	1	1	24.6423	-0.588574	-0.589037	-0.0280498	2	-0.00059882	643.049	151.818	1.65223e-05
2	0	0	1	1	24.6823	-0.592573	-0.593039	-0.0283371	2	-0.000599957	643.049	152.895	1.6805e-05
2	0	0	1	1	24.7223	-0.596571	-0.597038	-0.0286043	2	-0.000601105	643.049	153.98	1.70778e-05
2	0	0	1	1	24.7623	-0.60057	-0.601053	-0.0289229	2	-0.000602265	643.049	155.065	1.73842e-05
2	0	0	1	1	24.8023	-0.604568	-0.60505	-0.0291786	2	-0.000603438	643.049	156.163	1.76545e-05
2	0	0	1	1	24.8423	-0.608567	-0.60904	-0.0295364	2	-0.000604623	643.049	157.271	1.79889e-05
2	0	0	1	1	24.8823	-0.612566	-0.61303	-0.0299049	2	-0.000605821	643.049	158.387	1.83326e-05
2	0	0	1	1	24.9223	-0.616564	-0.617048	-0.0302459	2	-0.000607033	643.049	159.506	1.86631e-05
2	0	0	1	1	24.9623	-0.620563	-0.621024	-0.0306087	2	-0.00060826	643.049	160.649	1.90087e-05
2	0	0	1	1	25.0023	-0.624561	-0.625025	-0.0310141	2	-0.000609502	643.049	161.796	1.93846e-05
2	0	0	1	1	25.0423	-0.62856	-0.629048	-0.0314104	2	-0.00061076	643.049	162.949	1.97586e-05
2	0	0	1	1	25.0823	-0.632558	-0.633045	-0.0318305	2	-0.000612035	643.049	164.125	2.01502e-05
2	0	0	0	1	25.1221	-0.636557	-0.63705	-0.0323075	2	-0.000613321	643.049	165.302	2.05815e-05
2	0	0	0	1	25.1621	-0.640556	-0.641012	-0.0327313	2	-0.000614633	643.049	166.522	2.09811e-05
2	0	0	0	1	25.2021	-0.644554	-0.645033	-0.0332656	2	-0.000615963	643.049	167.741	2.14574e-05
2	0	0	0	1	25.2421	-0.648553	-0.649003	-0.0337799	2	-0.000617314	643.049	168.997	2.19233e-05
2	0	0	0	1	25.2821	-0.652551	-0.653044	-0.0343687	2	-0.000618686	643.049	170.254	2.24443e-05
2	0	0	0	1	25.3221	-0.65655	-0.65704	-0.0349584	2	-0.000620082	643.049	171.546	2.29691e-05
2	0	0	0	1	25.3621	-0.660548	-0.661014	-0.0355721	2	-0.0006215	643.049	172.871	2.35137e-05
2	0	0	0	1	25.4021	-0.664547	-0.665025	-0.0361499	2	-0.000622944	643.049	174.209	2.40406e-05
2	0	0	0	1	25.4421	-0.668545	-0.669026	-0.0368854	2	-0.000624414	643.049	175.58	2.46773e-05
2	0	0	0	1	25.4821	-0.672544	-0.673009	-0.0375215	2	-0.000625912	643.049	176.983	2.52523e-05
2	0	0	0	1	25.5221	-0.676543	-0.677021	-0.0383123	2	-0.000627439	643.049	178.411	2.59383e-05
2	0	0	0	1	25.5621	-0.680541	-0.680999	-0.0390861	2	-0.000628997	643.049	179.884	2.66176e-05
2	0	0	0	1	25.6021	-0.68454	-0.685015	-0.0399156	2	-0.000630587	643.049	181.381	2.73428e-05
2	0	0	0	1	25.6421	-0.688538	-0.689004	-0.0407973	2	-0.000632211	643.049	182.926	2.81095e-05
2	0	0	1	1	25.6819	-0.692537	-0.693001	-0.041768	2	-0.000633864	643.049	184.496	2.89452e-05
2	0	0	1	1	25.7219	-0.696536	-0.697014	-0.0427101	2	-0.000635563	643.049	186.118	2.97695e-05
2	0	0	1	1	25.7619	-0.700534	-0.701007	-0.0437483	2	-0.000637301	643.049	187.791	3.06678e-05
2	0	0	1	1	25.8019	-0.704533	-0.705012	-0.0448531	2	-0.000639083	643.049	189.512	3.1622e-05
2	0	0	1	1	25.8419	-0.708531	-0.709008	-0.0459717	2	-0.000640909	643.049	191.288	3.25943e-05
2	0	0	1	1	25.8819	-0.71253	-0.712998	-0.0472103	2	-0.000642782	643.049	193.12	3.36608e-05
2	0	0	1	1	25.9219	-0.716528	-0.717005	-0.0485063	2	-0.000644706	643.049	195.006	3.47793e-05
2	0	0	1	1	25.9619	-0.720527	-0.720997	-0.0498721	2	-0.000646684	643.049	196.961	3.59577e-05
2	0	0	1	1	26.0019	-0.724526	-0.724996	-0.0512712	2	-0.000648716	643.049	198.978	3.71714e-05
2	0	0	1	1	26.0419	-0.728524	-0.728997	-0.052807	2	-0.000650808	643.049	201.063	3.84962e-05
2	0	0	1	1	26.0819	-0.732523	-0.733002	-0.0543932	2	-0.000652961	643.049	203.22	3.98703e-05
2	0	0	1	1	26.1219	-0.736521	-0.73701	-0.0560958	2	-0.00065518	643.049	205.455	4.13432e-05
2	0	0	1	1	26.1619	-0.74052	-0.740999	-0.0578192	2	-0.000657467	643.049	207.776	4.28439e-05
2	0	0	1	1	26.2019	-0.744518	-0.745004	-0.059623	2	-0.000659826	643.049	210.176	4.44194e-05
2	0	0	0	1	26.2417	-0.748517	-0.749001	-0.061575	2	-0.000662248	643.049	212.648	4.61198e-05
2	0	0	0	1	26.2817	-0.752515	-0.75299	-0.0635641	2	-0.00066476	643.049	215.233	4.78631e-05
2	0	0	0	1	26.3217	-0.756514	-0.756986	-0.0656775	2	-0.000667354	643.049	217.911	4.9717e-05
2	0	0	0	1	26.3617	-0.760513	-0.760983	-0.0678127	2	-0.000670034	643.049	220.687	5.16043e-05
2	0	0	0	1	26.4017	-0.764511	-0.764983	-0.0701241	2	-0.000672803	643.049	223.565	5.36437e-05
2	0	0	0	1	26.4417	-0.76851	-0.768993	-0.0724855	2	-0.000675665	643.049	226.546	5.57409e-05
2	0	0	0	1	26.4817	-0.772508	-0.772993	-0.0749289	2	-0.000678623	643.049	229.641	5.79196e-05
2	0	0	0	1	26.5217	-0.776507	-0.77699	-0.0774321	2	-0.000681681	643.049	232.848	6.01639e-05
2	0	0	0	1	26.5617	-0.780505	-0.780977	-0.0801204	2	-0.000684842	643.049	236.177	6.25723e-05
2	0	0	0	1	26.6017	-0.784504	-0.784984	-0.0828477	2	-0.000688111	643.049	239.619	6.50341e-05
2	0	0	0	1	26.6417	-0.788503	-0.788984	-0.0857027	2	-0.000691491	643.049	243.188	6.76181e-05
2	0	0	0	1	26.6817	-0.792501	-0.792979	-0.0886163	2	-0.000694987	643.049	246.886	7.02709e-05
2	0	0	0	1	26.7217	-0.7965	-0.796986	-0.0916563	2	-0.000698602	643.049	250.711	7.30488e-05
2	0	0	0	1	26.7617	-0.800498	-0.800963	-0.0947746	2	-0.00070234	643.049	254.68	7.5911e-05
2	0	0	1	1	26.8015	-0.804497	-0.804959	-0.098081	2	-0.000706187	643.049	258.756	7.89512e-05
2	0	0	1	1	26.8415	-0.808496	-0.808966	-0.101427	2	-0.000710187	643.049	262.999	8.20509e-05
2	0	0	0	1	26.9125	-0.815593	-0.816009	-0.107081	2	-0.000717573	643.049	270.92	8.73794e-05
2	0	0	0	1	26.9525	-0.819592	-0.820021	-0.110726	2	-0.000721958	643.049	275.543	9.07974e-05
2	0	0	0	1	26.9925	-0.82359	-0.824001	-0.114569	2	-0.000726494	643.049	280.34	9.44048e-05
2	0	0	0	1	27.0325	-0.827589	-0.827996	-0.118576	2	-0.000731187	643.049	285.295	9.81804e-05
2	0	0	0	1	27.0725	-0.831587	-0.831977	-0.122676	2	-0.000736041	643.049	290.427	0.000102063
2	0	0	0	1	27.1125	-0.835586	-0.836004	-0.126915	2	-0.000741064	643.049	295.716	0.000106102
2	0	0	0	1	27.1525	-0.839584	-0.839991	-0.131379	2	-0.00074626	643.049	301.202	0.000110357
2	0	0	0	1	27.1925	-0.843583	-0.843997	-0.136023	2	-0.000751638	643.049	306.869	0.000114803
2	0	0	0	1	27.2325	-0.847582	-0.847981	-0.140726	2	-0.000757204	643.049	312.738	0.000119333
2	0	0	0	1	27.2725	-0.85158	-0.852001	-0.145766	2	-0.000762964	643.049	318.793	0.000124193
2	0	0	0	1	27.3125	-0.855579	-0.85598	-0.150962	2	-0.000768928	643.049	325.074	0.000129221
2	0	0	0	1	27.3524	-0.859577	-0.859989	-0.156352	2	-0.000775087	643.049	331.537	0.000134461
2	0	0	1	1	27.3923	-0.863576	-0.86398	-0.161922	2	-0.000781467	643.049	338.232	0.000139897
2	0	0	1	1	27.4323	-0.867574	-0.867983	-0.167672	2	-0.000788091	643.049	345.173	0.000145536
2	0	0	1	1	27.4723	-0.871573	-0.871971	-0.173732	2	-0.000794952	643.049	352.361	0.00015149
2	0	0	1	1	27.5123	-0.875571	-0.875969	-0.180079	2	-0.000802061	643.049	359.796	0.000157744
2	0	0	1	1	27.5523	-0.87957	-0.879973	-0.186705	2	-0.000809429	643.049	367.488	0.000164296
2	0	0	1	1	27.5923	-0.883569	-0.883973	-0.193622	2	-0.000817067	643.049	375.452	0.000171156
2	0	0	1	1	27.6323	-0.887567	-0.887978	-0.200764	2	-0.000824987	643.049	383.696	0.000178274
2	0	0	1	1	27.6723	-0.891566	-0.891971	-0.208342	2	-0.0008332	643.049	392.238	0.000185835
2	0	0	1	1	27.7123	-0.895564	-0.89597	-0.216197	2	-0.000841721	643.049	401.084	0.000193706
2	0	0	1	1	27.7518	-0.899513	-0.899913	-0.224257	2	-0.000850451	643.049	410.135	0.000201812
2	1	0	1	0	27.7827	-0.897464	-0.897875	-0.214692	2	-0.000857232	643.049	419.768	0.000192767
2	1	0	1	0	27.8227	-0.893465	-0.893885	-0.202981	2	-0.000865544	643.049	432.462	0.000181441
2	1	0	1	0	27.8627	-0.889467	-0.889876	-0.192584	2	-0.000873421	643.049	444.746	0.000171376
2	1	0	1	0	27.9027	-0.885468	-0.885873	-0.183023	2	-0.000880902	643.049	456.648	0.000162135
2	1	0	1	0	27.9427	-0.881469	-0.881879	-0.174158	2	-0.000888015	643.049	468.197	0.000153586
2	1	0	1	0	27.9827	-0.877471	-0.877859	-0.165846	2	-0.000894782	643.049	479.435	0.000145589
2	1	0	1	0	28.0227	-0.873472	-0.873872	-0.157907	2	-0.000901223	643.049	490.348	0.00013799
2	1	0	1	0	28.0627	-0.869474	-0.869882	-0.15042	2	-0.000907357	643.049	500.974	0.000130848
2	1	0	1	0	28.1027	-0.865475	-0.865882	-0.143305	2	-0.000913199	643.049	511.336	0.000124085
2	1	0	1	0	28.1427	-0.861476	-0.861901	-0.136562	2	-0.000918762	643.049	521.428	0.000117703
2	1	0	0	0	28.1825	-0.857478	-0.857907	-0.130055	2	-0.000924033	643.049	531.248	0.000111575
2	1	0	0	0	28.2225	-0.853479	-0.853892	-0.123872	2	-0.00092908	643.049	540.887	0.000105773
2	1	0	0	0	28.2625	-0.849481	-0.849903	-0.118035	2	-0.000933886	643.049	550.289	0.000100319
2	1	0	0	0	28.3025	-0.845482	-0.845882	-0.112491	2	-0.000938464	643.049	559.511	9.51546e-05
2	1	0	0	0	28.3425	-0.841484	-0.841884	-0.107016	2	-0.000942824	643.049	568.519	9.00947e-05
2	1	0	0	0	28.3825	-0.837485	-0.837911	-0.102099	2	-0.000946976	643.049	577.324	8.555e-05
2	1	0	0	0	28.4225	-0.833487	-0.833904	-0.0972138	2	-0.00095093	643.049	585.98	8.10669e-05
2	1	0	0	0	28.4625	-0.829488	-0.829911	-0.0925927	2	-0.000954693	643.049	594.458	7.68437e-05
2	1	0	0	0	28.5025	-0.825489	-0.825908	-0.0881955	2	-0.000958276	643.049	602.787	7.28414e-05
2	1	0	0	0	28.5425	-0.821491	-0.821913	-0.0838943	2	-0.000961686	643.049	610.963	6.89539e-05
2	1	0	0	0	28.5825	-0.817492	-0.817914	-0.0799357	2	-0.000964931	643.049	619.004	6.53805e-05
2	1	0	0	0	28.6225	-0.813494	-0.813913	-0.0760188	2	-0.000968018	643.049	626.916	6.18727e-05
2	1	0	0	0	28.6625	-0.809495	-0.809922	-0.0723778	2	-0.000970954	643.049	634.693	5.86204e-05
2	1	0	0	0	28.7025	-0.805497	-0.805899	-0.0688023	2	-0.000973747	643.049	642.383	5.54477e-05
2	1	0	1	0	28.7423	-0.801498	-0.801914	-0.0654043	2	-0.000976387	643.049	649.905	5.24486e-05
2	1	0	1	0	28.7823	-0.797499	-0.797895	-0.0622088	2	-0.00097891	643.049	657.38	4.9636e-05
2	1	0	1	0	28.8223	-0.793501	-0.793908	-0.0590826	2	-0.000981307	643.049	664.727	4.69062e-05
2	1	0	1	0	28.8623	-0.789502	-0.789913	-0.0561832	2	-0.000983584	643.049	671.995	4.43799e-05
2	1	0	1	0	28.9023	-0.785504	-0.785926	-0.0533838	2	-0.000985746	643.049	679.17	4.19557e-05
2	1	0	1	0	28.9423	-0.781505	-0.781943	-0.0507084	2	-0.000987799	643.049	686.268	3.96511e-05
2	1	0	1	0	28.9823	-0.777507	-0.777923	-0.0481464	2	-0.000989747	643.049	693.331	3.74542e-05
2	1	0	0	0	29.0533	-0.770409	-0.77081	-0.0435759	2	-0.000992973	643.049	705.624	3.35887e-05
2	1	0	0	0	29.0933	-0.76641	-0.766805	-0.0412827	2	-0.000994661	643.049	712.483	3.16558e-05
2	1	0	0	0	29.1333	-0.762412	-0.762807	-0.0391361	2	-0.000996261	643.049	719.286	2.98533e-05
2	1	0	0	0	29.1733	-0.758413	-0.758804	-0.0371074	2	-0.000997776	643.049	726.049	2.81573e-05
2	1	0	0	0	29.2133	-0.754415	-0.75481	-0.0351109	2	-0.000999211	643.049	732.761	2.65021e-05
2	1	0	0	0	29.2533	-0.750416	-0.750815	-0.033278	2	-0.00100057	643.049	739.441	2.49856e-05
2	1	0	1	0	29.2931	-0.746418	-0.746795	-0.0314619	2	-0.00100185	643.049	746.107	2.34956e-05
2	1	0	1	0	29.3331	-0.742419	-0.742808	-0.0297857	2	-0.00100306	643.049	752.721	2.21251e-05
2	1	0	1	0	29.3731	-0.738421	-0.738831	-0.0281785	2	-0.00100421	643.049	759.301	2.08192e-05
2	1	0	1	0	29.4131	-0.734422	-0.734828	-0.0266032	2	-0.0010053	643.049	765.898	1.95488e-05
2	1	0	1	0	29.4531	-0.730423	-0.730828	-0.0251477	2	-0.00100632	643.049	772.478	1.83787e-05
2	1	0	1	0	29.4931	-0.726425	-0.726814	-0.0237554	2	-0.00100729	643.049	779.07	1.72658e-05
2	1	0	1	0	29.5331	-0.722426	-0.72283	-0.022403	2	-0.0010082	643.049	785.621	1.61935e-05
2	1	0	1	0	29.5731	-0.718428	-0.71884	-0.021133	2	-0.00100907	643.049	792.179	1.51913e-05
2	1	0	1	0	29.6131	-0.714429	-0.71483	-0.0199554	2	-0.00100988	643.049	798.771	1.42647e-05
2	1	0	1	0	29.6531	-0.710431	-0.710823	-0.0188546	2	-0.00101064	643.049	805.369	1.34023e-05
2	1	0	1	0	29.6931	-0.706432	-0.706839	-0.0177303	2	-0.00101137	643.049	811.951	1.25325e-05
2	1	0	1	0	29.7331	-0.702433	-0.702805	-0.0166841	2	-0.00101205	643.049	818.619	1.17257e-05
2	1	0	1	0	29.7731	-0.698435	-0.698805	-0.0157294	2	-0.00101268	643.049	825.264	1.09918e-05
2	1	0	1	0	29.8131	-0.694436	-0.694823	-0.0148195	2	-0.00101329	643.049	831.909	1.02969e-05
2	1	0	0	0	29.8529	-0.690438	-0.690797	-0.0139284	2	-0.00101385	643.049	838.641	9.62168e-06
2	1	0	0	0	29.8929	-0.686439	-0.686831	-0.0131685	2	-0.00101438	643.049	845.331	9.04453e-06
2	1	0	0	0	29.9329	-0.682441	-0.682824	-0.012345	2	-0.00101488	643.049	852.115	8.42947e-06
2	1	0	0	0	29.9729	-0.678442	-0.678827	-0.0116209	2	-0.00101535	643.049	858.927	7.88862e-06
2	1	0	0	0	30.0129	-0.674443	-0.674828	-0.010877	2	-0.00101579	643.049	865.788	7.34008e-06
2	1	0	0	0	30.0529	-0.670445	-0.670838	-0.0102832	2	-0.0010162	643.049	872.686	6.89836e-06
2	1	0	0	0	30.0929	-0.666446	-0.666832	-0.00962986	2	-0.00101659	643.049	879.663	6.4215e-06
2	1	0	0	0	30.1329	-0.662448	-0.662845	-0.00909128	2	-0.00101696	643.049	886.667	6.02611e-06
2	1	0	0	0	30.1729	-0.658449	-0.658854	-0.00852299	2	-0.0010173	643.049	893.739	5.6154e-06
2	1	0	0	0	30.2129	-0.654451	-0.654851	-0.00802553	2	-0.00101762	643.049	900.895	5.25552e-06
2	1	0	0	0	30.2529	-0.650452	-0.650833	-0.00747359	2	-0.00101792	643.049	908.145	4.86405e-06
2	1	0	0	0	30.2929	-0.646453	-0.646825	-0.00703106	2	-0.0010182	643.049	915.449	4.54787e-06
2	1	0	0	0	30.3329	-0.642455	-0.642848	-0.00660922	2	-0.00101846	643.049	922.777	4.24872e-06
2	1	0	0	0	30.3729	-0.638456	-0.638834	-0.00617986	2	-0.00101871	643.049	930.248	3.94791e-06
2	1	0	1	0	30.4127	-0.634458	-0.634839	-0.00579701	2	-0.00101894	643.049	937.769	3.68016e-06
2	1	0	1	0	30.4527	-0.630459	-0.630859	-0.00547421	2	-0.00101915	643.049	945.35	3.45345e-06
2	1	0	1	0	30.4927	-0.626461	-0.626845	-0.00509121	2	-0.00101936	643.049	953.082	3.1914e-06
2	1	0	0	0	30.5637	-0.619363	-0.619749	-0.00432292	2	-0.00101968	643.049	966.969	2.67912e-06
2	1	0	0	0	30.6037	-0.615364	-0.615737	-0.00401572	2	-0.00101985	643.049	974.954	2.47263e-06
2	1	0	0	0	30.6437	-0.611366	-0.611747	-0.00373223	2	-0.00102	643.049	982.996	2.28318e-06
2	1	0	0	0	30.6837	-0.607367	-0.607745	-0.00347077	2	-0.00102015	643.049	991.173	2.10934e-06
2	1	0	0	0	30.7237	-0.603369	-0.603753	-0.00319261	2	-0.00102028	643.049	999.437	1.92755e-06
2	1	0	0	0	30.7637	-0.59937	-0.599735	-0.00293511	2	-0.0010204	643.049	1007.87	1.76029e-06
2	1	0	0	0	30.8037	-0.595372	-0.595747	-0.00272285	2	-0.00102052	643.049	1016.36	1.62213e-06
2	1	0	0	0	30.8437	-0.591373	-0.591755	-0.00250027	2	-0.00102062	643.049	1024.98	1.47955e-06
2	1	0	0	0	30.8837	-0.587375	-0.587749	-0.00228317	2	-0.00102072	643.049	1033.76	1.34193e-06
2	1	0	0	0	30.9237	-0.583376	-0.583756	-0.00205758	2	-0.0010208	643.049	1042.64	1.20112e-06
2	1	0	1	0	30.9635	-0.579377	-0.579764	-0.00182371	2	-0.00102088	643.049	1051.64	1.05732e-06
2	1	0	1	0	31.0035	-0.575379	-0.575765	-0.00167892	2	-0.00102095	643.049	1060.8	9.66662e-07
2	1	0	1	0	31.0435	-0.57138	-0.571762	-0.00146992	2	-0.00102101	643.049	1070.12	8.40442e-07
2	1	0	1	0	31.0835	-0.567382	-0.567752	-0.00129769	2	-0.00102107	643.049	1079.59	7.36763e-07
2	1	0	1	0	31.1235	-0.563383	-0.563755	-0.00112077	2	-0.00102112	643.049	1089.19	6.31841e-07
2	1	0	1	0	31.1635	-0.559385	-0.559763	-0.000937611	2	-0.00102116	643.049	1098.93	5.2484e-07
2	1	0	1	0	31.2035	-0.555386	-0.555763	-0.000781888	2	-0.00102119	643.049	1108.84	4.34544e-07
2	1	0	1	0	31.2435	-0.551387	-0.551751	-0.000590781	2	-0.00102122	643.049	1118.95	3.25964e-07
2	1	0	1	0	31.2835	-0.547389	-0.547756	-0.000425682	2	-0.00102124	643.049	1129.18	2.3317e-07
2	1	0	1	0	31.3235	-0.54339	-0.54376	-0.000262607	2	-0.00102125	643.049	1139.6	1.42795e-07
2	1	0	1	0	31.3635	-0.539392	-0.539778	-9.008e-05	2	-0.00102126	643.049	1150.15	4.86232e-08
2	1	0	1	0	31.4035	-0.535393	-0.535766	4.58076e-05	2	-0.00102126	44.5946	1155.54	2.45422e-08
2	1	0	1	0	31.4435	-0.531395	-0.53177	0.000222769	2	-0.00102125	45	1155.54	1.18462e-07
2	1	0	1	0	31.4835	-0.527396	-0.527773	0.000375425	2	-0.00102124	45.4261	1155.54	1.98139e-07
2	1	0	0	0	31.5233	-0.523397	-0.523761	0.000574364	2	-0.00102122	45.8767	1155.54	3.00829e-07
2	1	0	0	0	31.5633	-0.519399	-0.519762	0.000705478	2	-0.0010212	46.3483	1155.54	3.66681e-07
2	1	0	0	0	31.6033	-0.5154	-0.515772	0.000834499	2	-0.00102116	46.8407	1155.54	4.30411e-07
2	1	0	0	0	31.6433	-0.511402	-0.511766	0.000994507	2	-0.00102113	47.359	1155.54	5.08955e-07
2	1	0	0	0	31.6833	-0.507403	-0.507769	0.00116862	2	-0.00102108	47.9007	1155.54	5.93388e-07
2	1	0	0	0	31.7233	-0.503405	-0.503766	0.00133561	2	-0.00102103	48.4677	1155.54	6.72834e-07
2	1	0	0	0	31.7633	-0.499406	-0.499747	0.00147185	2	-0.00102098	49.0615	1155.54	7.35551e-07
2	1	0	0	0	31.8033	-0.495407	-0.495774	0.00163303	2	-0.00102091	49.6766	1155.54	8.09616e-07
2	1	0	0	0	31.8433	-0.491409	-0.491767	0.00178089	2	-0.00102084	50.3225	1155.54	8.75782e-07
2	1	0	0	0	31.8833	-0.48741	-0.48776	0.00195793	2	-0.00102077	50.9962	1155.54	9.55e-07
2	1	0	0	0	31.9233	-0.483412	-0.483774	0.00209712	2	-0.00102069	51.6947	1155.54	1.01453e-06
2	1	0	0	0	31.9633	-0.479413	-0.479773	0.00226467	2	-0.0010206	52.4258	1155.54	1.08653e-06
2	1	0	0	0	32.0033	-0.475414	-0.475778	0.00242048	2	-0.00102051	53.1862	1155.54	1.15161e-06
2	1	0	0	0	32.0433	-0.471416	-0.471764	0.00258641	2	-0.00102041	53.9814	1155.54	1.22018e-06
2	1	0	1	0	32.0831	-0.467417	-0.467787	0.00277078	2	-0.0010203	54.8025	1155.54	1.29614e-06
2	1	0	1	0	32.1231	-0.463419	-0.463793	0.00291001	2	-0.00102019	55.6611	1155.54	1.34964e-06
2	1	0	1	0	32.1631	-0.45942	-0.459791	0.00307322	2	-0.00102007	56.556	1155.54	1.41304e-06
2	1	0	1	0	32.2031	-0.455422	-0.455791	0.00324065	2	-0.00101994	57.4865	1155.54	1.47706e-06
2	1	0	1	0	32.2431	-0.451423	-0.451783	0.0033944	2	-0.00101981	58.4547	1155.54	1.53353e-06
2	1	0	1	0	32.2831	-0.447425	-0.447778	0.00357148	2	-0.00101967	59.4624	1155.54	1.59923e-06
2	1	0	1	0	32.3231	-0.443426	-0.443791	0.00373368	2	-0.00101952	60.5073	1155.54	1.65697e-06
2	1	0	1	0	32.3631	-0.439427	-0.439784	0.00389699	2	-0.00101937	61.5967	1155.54	1.71383e-06
2	1	0	1	0	32.4031	-0.435429	-0.435795	0.00406814	2	-0.00101921	62.7256	1155.54	1.77287e-06
2	1	0	1	0	32.4431	-0.43143	-0.431786	0.00423554	2	-0.00101904	63.9017	1155.54	1.82885e-06
2	1	0	1	0	32.4831	-0.427432	-0.427792	0.00439734	2	-0.00101887	65.1217	1155.54	1.88115e-06
2	1	0	1	0	32.5231	-0.423433	-0.423802	0.00459405	2	-0.00101869	66.3893	1155.54	1.94697e-06
2	1	0	1	0	32.5631	-0.419434	-0.419791	0.00476391	2	-0.0010185	67.7111	1155.54	1.99984e-06
2	1	0	1	0	32.6031	-0.415436	-0.415791	0.00493781	2	-0.00101831	69.0826	1155.54	2.05309e-06
2	1	0	0	0	32.6429	-0.411437	-0.411805	0.0051481	2	-0.00101811	70.5016	1155.54	2.12001e-06
2	1	0	0	0	32.6829	-0.407439	-0.407802	0.0053086	2	-0.0010179	71.9836	1155.54	2.16486e-06
2	1	0	0	0	32.7229	-0.40344	-0.403807	0.00546378	2	-0.00101768	73.5208	1155.54	2.20631e-06
2	1	0	0	0	32.7629	-0.399442	-0.399812	0.00565375	2	-0.00101746	75.1182	1155.54	2.26044e-06
2	1	0	0	0	32.8029	-0.395443	-0.395807	0.00582891	2	-0.00101723	76.7804	1155.54	2.30712e-06
2	1	0	0	0	32.8429	-0.391444	-0.391805	0.00600973	2	-0.00101699	78.5061	1155.54	2.35465e-06
2	1	0	0	0	32.8829	-0.387446	-0.38781	0.00617333	2	-0.00101675	80.297	1155.54	2.39408e-06
2	1	0	0	0	32.9229	-0.383447	-0.383806	0.00637693	2	-0.0010165	82.1616	1155.54	2.4475e-06
2	1	0	0	0	32.9629	-0.379449	-0.379809	0.00654285	2	-0.00101624	84.0957	1155.54	2.48503e-06
2	1	0	0	0	33.0029	-0.37545	-0.37581	0.00673035	2	-0.00101597	86.1066	1155.54	2.52933e-06
2	1	0	0	0	33.0429	-0.371452	-0.371802	0.00690077	2	-0.0010157	88.1989	1155.54	2.56572e-06
2	1	0	0	0	33.0829	-0.367453	-0.367788	0.00708517	2	-0.00101542	90.3757	1155.54	2.60584e-06
2	1	0	0	0	33.1229	-0.363455	-0.363815	0.0072471	2	-0.00101513	92.6248	1155.54	2.6366e-06
2	1	0	0	0	33.1629	-0.359456	-0.359805	0.00743744	2	-0.00101484	94.9751	1155.54	2.67603e-06
2	1	0	1	0	33.2027	-0.355457	-0.355794	0.00766984	2	-0.00101454	97.4152	1155.54	2.72888e-06
2	1	0	1	0	33.2427	-0.351459	-0.351801	0.00781656	2	-0.00101423	99.9516	1155.54	2.74987e-06
2	1	0	1	0	33.2827	-0.34746	-0.347806	0.00799476	2	-0.00101391	102.588	1155.54	2.78063e-06
2	1	0	1	0	33.3227	-0.343462	-0.343802	0.00818699	2	-0.00101359	105.335	1155.54	2.8147e-06
2	1	0	1	0	33.3627	-0.339463	-0.339785	0.00835622	2	-0.00101326	108.199	1155.54	2.83932e-06
2	1	0	1	0	33.4027	-0.335465	-0.3358	0.00852882	2	-0.00101292	111.166	1155.54	2.86397e-06
2	1	0	1	0	33.4427	-0.331466	-0.331803	0.0087239	2	-0.00101257	114.26	1155.54	2.89461e-06
2	1	0	1	0	33.4827	-0.327467	-0.327793	0.00891365	2	-0.00101222	117.487	1155.54	2.92183e-06
2	1	0	1	0	33.5227	-0.323469	-0.323807	0.00908924	2	-0.00101186	120.837	1155.54	2.94316e-06
2	1	0	1	0	33.5627	-0.31947	-0.319834	0.00929441	2	-0.00101149	124.321	1155.54	2.97266e-06
2	1	0	1	0	33.6027	-0.315472	-0.315826	0.00949269	2	-0.00101112	127.973	1155.54	2.99804e-06
2	1	0	1	0	33.6427	-0.311473	-0.31182	0.0096865	2	-0.00101073	131.781	1155.54	3.02044e-06
2	1	0	1	0	33.6827	-0.307475	-0.307819	0.00986895	2	-0.00101034	135.75	1155.54	3.03786e-06
2	1	0	1	0	33.7227	-0.303476	-0.303829	0.0100891	2	-0.00100994	139.891	1155.54	3.06536e-06
2	1	0	1	0	33.7935	-0.296378	-0.296757	0.0102405	2	-0.00100921	147.663	1155.54	3.03894e-06
2	1	0	1	0	33.8335	-0.29238	-0.29276	0.0105018	2	-0.00100879	152.309	1155.54	3.0745e-06
2	1	0	1	0	33.8735	-0.288381	-0.288739	0.0107172	2	-0.00100835	157.192	1155.54	3.09446e-06
2	1	0	1	0	33.9135	-0.284383	-0.28477	0.0109708	2	-0.00100791	162.269	1155.54	3.12416e-06
2	1	0	1	0	33.9535	-0.280384	-0.280761	0.0112235	2	-0.00100746	167.624	1155.54	3.15112e-06
2	1	0	1	0	33.9935	-0.276386	-0.276755	0.0114606	2	-0.001007	173.243	1155.54	3.17177e-06
2	1	0	1	0	34.0335	-0.272387	-0.272759	0.0117665	2	-0.00100652	179.134	1155.54	3.20943e-06
2	1	0	1	0	34.0735	-0.268388	-0.268759	0.0120171	2	-0.00100604	185.331	1155.54	3.2297e-06
2	1	0	1	0	34.1135	-0.26439	-0.264774	0.01232	2	-0.00100554	191.841	1155.54	3.26203e-06
2	1	0	1	0	34.1535	-0.260391	-0.260751	0.0126271	2	-0.00100503	198.739	1155.54	3.29254e-06
2	1	0	1	0	34.1935	-0.256393	-0.256758	0.0129367	2	-0.00100451	205.977	1155.54	3.3216e-06
2	1	0	1	0	34.2335	-0.252394	-0.252767	0.0132839	2	-0.00100397	213.615	1155.54	3.35774e-06
2	1	0	1	0	34.2735	-0.248396	-0.248771	0.013649	2	-0.00100343	221.695	1155.54	3.39547e-06
2	1	0	1	0	34.3134	-0.244404	-0.244769	0.0140201	2	-0.00100287	230.243	1155.54	3.43169e-06
2	1	0	0	0	34.3533	-0.240398	-0.240759	0.0144045	2	-0.00100229	239.312	1155.54	3.468e-06
2	1	0	0	0	34.3933	-0.2364	-0.236768	0.0147127	2	-0.0010017	248.896	1155.54	3.48351e-06
2	1	0	0	0	34.4333	-0.232401	-0.232779	0.015133	2	-0.00100109	259.063	1155.54	3.52264e-06
2	1	0	0	0	34.4733	-0.228403	-0.228795	0.015478	2	-0.00100047	269.848	1155.54	3.54129e-06
2	1	0	0	0	34.5133	-0.224404	-0.224788	0.0159116	2	-0.000999833	281.364	1155.54	3.57674e-06
2	1	0	0	0	34.5533	-0.220406	-0.220794	0.0162598	2	-0.00099918	293.605	1155.54	3.59007e-06
2	1	0	0	0	34.5933	-0.216407	-0.216792	0.0167325	2	-0.00099851	306.676	1155.54	3.62746e-06
2	1	0	0	0	34.6333	-0.212408	-0.21278	0.0171165	2	-0.000997823	320.658	1155.54	3.64204e-06
2	1	0	0	0	34.6733	-0.20841	-0.20879	0.0175059	2	-0.000997121	335.551	1155.54	3.65505e-06
2	1	0	0	0	34.7133	-0.204411	-0.204786	0.0179795	2	-0.000996401	351.546	1155.54	3.68195e-06
2	1	0	0	0	34.7533	-0.200413	-0.20079	0.0183961	2	-0.000995665	368.68	1155.54	3.69374e-06
2	1	0	0	0	34.7933	-0.196414	-0.196806	0.018823	2	-0.000994911	387.047	1155.54	3.70448e-06
2	1	0	0	0	34.8333	-0.192416	-0.192799	0.0192093	2	-0.000994141	406.89	1155.54	3.70354e-06
2	1	0	0	0	34.8732	-0.188424	-0.188789	0.0197089	2	-0.000993355	428.301	1155.54	3.72082e-06
2	1	0	1	0	34.9131	-0.184418	-0.184797	0.0200981	2	-0.000992552	451.379	1155.54	3.71407e-06
2	1	0	1	0	34.9531	-0.18042	-0.180798	0.0205466	2	-0.00099173	476.43	1155.54	3.71478e-06
2	1	0	1	0	34.9931	-0.176421	-0.176795	0.0209623	2	-0.000990891	503.664	1155.54	3.70603e-06
2	1	0	1	0	35.0331	-0.172423	-0.172783	0.021403	2	-0.000990035	533.389	1155.54	3.69807e-06
2	1	0	1	0	35.0731	-0.168424	-0.168803	0.0217815	2	-0.000989161	565.672	1155.54	3.67679e-06
2	1	0	1	0	35.1131	-0.164426	-0.1648	0.0222519	2	-0.00098827	601.219	1155.54	3.6671e-06
2	1	0	1	0	35.1531	-0.160427	-0.160779	0.0226583	2	-0.000987361	640.469	1155.54	3.64298e-06
2	1	0	1	0	35.1931	-0.156428	-0.15679	0.0231536	2	-0.000986434	683.587	1155.54	3.63025e-06
2	1	0	1	0	35.2331	-0.15243	-0.152802	0.0235919	2	-0.000985489	731.433	1155.54	3.60489e-06
2	1	0	1	0	35.2731	-0.148431	-0.148795	0.0240297	2	-0.000984527	784.979	1155.54	3.5755e-06
2	1	0	1	0	35.3131	-0.144433	-0.144779	0.0244544	2	-0.000983547	845.154	1155.54	3.5405e-06
2	1	0	1	0	35.3531	-0.140434	-0.140792	0.02489	2	-0.00098255	912.681	1155.54	3.50431e-06
2	1	0	1	0	35.3931	-0.136436	-0.136785	0.0253154	2	-0.000981536	989.698	1155.54	3.46276e-06
2	1	0	1	0	35.433	-0.132444	-0.132787	0.0257489	2	-0.000980508	1077.68	1155.54	3.41912e-06
2	1	0	0	0	35.4729	-0.128439	-0.12879	0.0260587	2	-0.000979465	1179.34	1155.54	3.3561e-06
2	1	0	0	0	35.5129	-0.12444	-0.124802	0.0263819	2	-0.000978406	1297.81	1155.54	3.29251e-06
2	1	0	0	0	35.5529	-0.120441	-0.120801	0.0267646	2	-0.000977334	1438.17	1155.54	3.2332e-06
2	1	0	0	0	35.5929	-0.116443	-0.116824	0.0269236	2	-0.000976251	1605.53	1155.54	3.14532e-06
2	1	0	0	0	35.6329	-0.112444	-0.112808	0.0271224	2	-0.000975159	1811.39	1155.54	3.05963e-06
2	1	0	0	0	35.6729	-0.108446	-0.108825	0.0272407	2	-0.000974061	2066.17	1155.54	2.96448e-06
2	1	0	0	0	35.7129	-0.104447	-0.104792	0.0273272	2	-0.000972959	2396.2	1155.54	2.86368e-06
2	1	0	0	0	35.7529	-0.100448	-0.100804	0.0273369	2	-0.000971856	2829.7	1155.54	2.75566e-06
2	1	0	0	0	35.7929	-0.0964499	-0.0967972	0.0272836	2	-0.000970753	3434.06	1155.54	2.64097e-06
2	1	0	0	0	35.8329	-0.0924513	-0.0928027	0.0271332	2	-0.000969655	4327.48	1155.54	2.51803e-06
2	1	0	0	0	35.8729	-0.0884528	-0.0888098	0.0269448	2	-0.000968564	5787.17	1155.54	2.39296e-06
2	1	0	0	0	35.9129	-0.0844542	-0.0847954	0.0266983	2	-0.000967481	8625.28	1155.54	2.26389e-06
2	1	0	0	0	35.9529	-0.0804556	-0.0808153	0.0263657	2	-0.00096641	16346.4	1155.54	2.13075e-06
2	1	0	0	0	35.9928	-0.0764639	-0.0768236	0.0260166	2	-0.000965356	128382	1155.54	1.99869e-06
2	1	0	1	0	35.9982	-0.0759072	-0.0762395	0.0259355	2	-0.000965214	9.97527e+06	1155.54	1.97731e-06