File: TAP_Report/Data/Res_growth/mg6_1_2.mpt
EC-Lab ASCII FILE
Nb header lines : 54

Cyclic Voltammetry

Run on channel : 1 (SN 0696)
User :
Electrode connection : standard
Ewe ctrl range : min = -2.50 V, max = 2.50 V
Ewe,I filtering : 50 kHz
Channel : Grounded
Acquisition started on : 01/18/2017 14:27:37
Saved on :
	File : mg6_1.mpr
	Directory : H:\EC-Lab\Data\Resazurin Bulk 18-1-17\
	Host : 144.32.136.43
Device : SP-300 (SN 0182)
Address : USB
EC-Lab for windows v10.44 (software)
Internet server v10.44 (firmware)
Command interpretor v10.44 (firmware)
Electrode material :
Initial state :
Electrolyte :
Comments :
Cable : standard
Reference electrode : SCE Saturated Calomel Electrode (0.241 V)
Electrode surface area : 0.001 cm²
Characteristic mass : 0.001 g
Equivalent Weight : 0.000 g/eq.
Density : 0.000 g/cm3
Ei (V)              0.000
vs.                 Eoc
dE/dt               100.000
dE/dt unit          mV/s
E1 (V)              0.000
vs.                 Ref
Step percent        50
N                   10
E range min (V)     -2.500
E range max (V)     2.500
I Range             Auto
I Range min         Unset
I Range max         Unset
I Range init        Unset
Bandwidth           8
E2 (V)              -0.900
vs.                 Ref
nc cycles           2
Reverse Scan        1
Ef (V)              0.000
vs.                 Eoc

mode	ox/red	error	control changes	counter inc.	time/s	control/V	Ewe/V	<I>/mA	cycle number	(Q-Qo)/C	P/W
2	1	0	0	1	17.9966	-0.0382207	-0.0390127	0.0189305	2	-0.000858951	7.38532e-07
2	1	0	1	1	18.0221	-0.0356717	-0.0364594	0.0186611	2	-0.000858467	6.80374e-07
2	1	0	1	1	18.0521	-0.0326727	-0.0334399	0.0183662	2	-0.000857905	6.14162e-07
2	1	0	1	1	18.0821	-0.0296738	-0.0304628	0.0179945	2	-0.000857353	5.48162e-07
2	1	0	1	1	18.1121	-0.0266749	-0.0274482	0.0177521	2	-0.000856809	4.87263e-07
2	1	0	1	1	18.1421	-0.0236759	-0.0244656	0.0174893	2	-0.000856273	4.27885e-07
2	1	0	1	1	18.1721	-0.020677	-0.0214661	0.0172878	2	-0.000855745	3.711e-07
2	1	0	1	1	18.2021	-0.0176781	-0.0184693	0.0170203	2	-0.000855224	3.14353e-07
2	1	0	1	1	18.2321	-0.0146791	-0.0154721	0.016803	2	-0.00085471	2.59977e-07
2	1	0	1	1	18.2621	-0.0116802	-0.012485	0.0166111	2	-0.000854201	2.07389e-07
2	1	0	1	1	18.2921	-0.00868129	-0.00946852	0.01642	2	-0.000853699	1.55473e-07
2	1	0	1	1	18.3221	-0.00568236	-0.00647448	0.0162684	2	-0.000853202	1.0533e-07
2	1	0	1	1	18.3521	-0.00268343	-0.00348083	0.0161033	2	-0.00085271	5.60528e-08
2	1	0	1	1	18.3776	-0.000134344	-0.000957771	0.01596	2	-0.000852295	1.5286e-08
2	0	0	1	1	18.3945	-0.00158383	-0.00244139	0.0127627	2	-0.000852068	3.11589e-08
2	0	0	1	1	18.4245	-0.00458275	-0.00545278	0.0112259	2	-0.000851717	6.12124e-08
2	0	0	1	1	18.4545	-0.00758168	-0.00842796	0.0101788	2	-0.000851404	8.57866e-08
2	0	0	1	1	18.4845	-0.0105806	-0.0114392	0.00934802	2	-0.000851118	1.06934e-07
2	0	0	1	1	18.5145	-0.0135795	-0.0144457	0.00865633	2	-0.000850857	1.25047e-07
2	0	0	1	1	18.5445	-0.0165785	-0.0174404	0.00792802	2	-0.000850615	1.38268e-07
2	0	0	1	1	18.5745	-0.0195774	-0.0204149	0.00741224	2	-0.000850392	1.5132e-07
2	0	0	1	1	18.6045	-0.0225763	-0.0234247	0.00685135	2	-0.000850186	1.60491e-07
2	0	0	1	1	18.6345	-0.0255753	-0.0264248	0.00639635	2	-0.000849994	1.69023e-07
2	0	0	1	1	18.6645	-0.0285742	-0.0294252	0.00595176	2	-0.000849817	1.75132e-07
2	0	0	1	1	18.6945	-0.0315731	-0.0324407	0.00550304	2	-0.000849652	1.78522e-07
2	0	0	1	1	18.7245	-0.034572	-0.0354184	0.00510329	2	-0.000849499	1.8075e-07
2	0	0	1	1	18.7545	-0.037571	-0.0384322	0.00475518	2	-0.000849358	1.82752e-07
2	0	0	1	1	18.8153	-0.0436688	-0.0445199	0.00384455	2	-0.000849111	1.71159e-07
2	0	0	1	1	18.8453	-0.0466677	-0.0475158	0.00351738	2	-0.000849001	1.67131e-07
2	0	0	1	1	18.8753	-0.0496666	-0.0505374	0.00322876	2	-0.0008489	1.63173e-07
2	0	0	1	1	18.9053	-0.0526656	-0.0535352	0.00293949	2	-0.000848808	1.57367e-07
2	0	0	1	1	18.9353	-0.0556645	-0.0565314	0.00267013	2	-0.000848724	1.50946e-07
2	0	0	1	1	18.9653	-0.0586634	-0.0595138	0.00240507	2	-0.000848648	1.43135e-07
2	0	0	1	1	18.9953	-0.0616624	-0.0625089	0.00214545	2	-0.000848579	1.3411e-07
2	0	0	1	1	19.0253	-0.0646613	-0.0655347	0.00192055	2	-0.000848519	1.25863e-07
2	0	0	1	1	19.0553	-0.0676602	-0.0685284	0.00168184	2	-0.000848465	1.15253e-07
2	0	0	1	1	19.0853	-0.0706592	-0.0715181	0.00145084	2	-0.000848419	1.03761e-07
2	0	0	1	1	19.1153	-0.0736581	-0.0745264	0.00122165	2	-0.000848379	9.10454e-08
2	0	0	1	1	19.1453	-0.076657	-0.0775378	0.000998009	2	-0.000848346	7.73834e-08
2	0	0	1	1	19.1753	-0.0796559	-0.0805253	0.000771749	2	-0.00084832	6.21453e-08
2	0	0	1	1	19.2053	-0.0826549	-0.0835032	0.000568553	2	-0.0008483	4.7476e-08
2	0	0	1	1	19.2353	-0.0856538	-0.0865091	0.000371172	2	-0.000848286	3.21097e-08
2	0	0	1	1	19.2653	-0.0886527	-0.0895239	0.000148237	2	-0.000848279	1.32708e-08
2	0	0	1	1	19.2953	-0.0916516	-0.0925097	-3.65357e-05	2	-0.000848277	3.37991e-09
2	0	0	1	1	19.3252	-0.0946528	-0.0955151	-0.000270121	2	-0.000848282	2.58007e-08
2	0	0	0	1	19.3551	-0.0976495	-0.0985086	-0.000452448	2	-0.000848293	4.457e-08
2	0	0	0	1	19.3851	-0.100648	-0.101515	-0.00066068	2	-0.00084831	6.70688e-08
2	0	0	0	1	19.4151	-0.103647	-0.104523	-0.000854134	2	-0.000848333	8.92768e-08
2	0	0	0	1	19.4451	-0.106646	-0.107521	-0.00104648	2	-0.000848362	1.12518e-07
2	0	0	0	1	19.4751	-0.109645	-0.110511	-0.00124562	2	-0.000848397	1.37656e-07
2	0	0	0	1	19.5051	-0.112644	-0.113511	-0.00143799	2	-0.000848437	1.63228e-07
2	0	0	0	1	19.5351	-0.115643	-0.116513	-0.00163784	2	-0.000848484	1.90829e-07
2	0	0	0	1	19.5651	-0.118642	-0.119539	-0.00183429	2	-0.000848537	2.19269e-07
2	0	0	0	1	19.5951	-0.121641	-0.122519	-0.00204087	2	-0.000848595	2.50045e-07
2	0	0	0	1	19.6251	-0.12464	-0.125532	-0.00225095	2	-0.00084866	2.82567e-07
2	0	0	0	1	19.6551	-0.127639	-0.12853	-0.00245012	2	-0.00084873	3.14914e-07
2	0	0	0	1	19.6851	-0.130638	-0.131507	-0.00266411	2	-0.000848807	3.50348e-07
2	0	0	0	1	19.7151	-0.133637	-0.134507	-0.00285228	2	-0.00084889	3.8365e-07
2	0	0	0	1	19.7451	-0.136636	-0.137502	-0.00306495	2	-0.000848979	4.21436e-07
2	0	0	0	1	19.7751	-0.139634	-0.140523	-0.00329396	2	-0.000849075	4.62879e-07
2	0	0	0	1	19.8051	-0.142633	-0.143503	-0.00352441	2	-0.000849178	5.05762e-07
2	0	0	0	1	19.8351	-0.145632	-0.146505	-0.00375366	2	-0.000849287	5.49931e-07
2	0	0	0	1	19.8651	-0.148631	-0.149515	-0.00398914	2	-0.000849403	5.96436e-07
2	0	0	1	1	19.8949	-0.15163	-0.152515	-0.00421161	2	-0.000849525	6.42334e-07
2	0	0	1	1	19.9249	-0.154629	-0.155512	-0.00445561	2	-0.000849655	6.92899e-07
2	0	0	1	1	19.9549	-0.157628	-0.158523	-0.00470173	2	-0.000849793	7.4533e-07
2	0	0	1	1	19.9849	-0.160627	-0.161494	-0.00494186	2	-0.000849937	7.98081e-07
2	0	0	1	1	20.0149	-0.163626	-0.164505	-0.00520126	2	-0.00085009	8.55631e-07
2	0	0	1	1	20.0449	-0.166625	-0.167513	-0.00546315	2	-0.00085025	9.1515e-07
2	0	0	1	1	20.0749	-0.169624	-0.170513	-0.00572397	2	-0.000850419	9.76009e-07
2	0	0	1	1	20.1049	-0.172623	-0.173519	-0.006015	2	-0.000850595	1.04372e-06
2	0	0	1	1	20.1349	-0.175622	-0.176509	-0.00630584	2	-0.000850781	1.11303e-06
2	0	0	1	1	20.1649	-0.178621	-0.179513	-0.00660574	2	-0.000850974	1.18582e-06
2	0	0	1	1	20.1949	-0.181619	-0.182514	-0.00689487	2	-0.000851177	1.25841e-06
2	0	0	1	1	20.2249	-0.184618	-0.185502	-0.00717103	2	-0.000851388	1.33024e-06
2	0	0	1	1	20.2549	-0.187617	-0.188503	-0.00750186	2	-0.000851609	1.41413e-06
2	0	0	1	1	20.2849	-0.190616	-0.191517	-0.00784344	2	-0.000851839	1.50215e-06
2	0	0	1	1	20.3149	-0.193615	-0.194521	-0.00814921	2	-0.000852079	1.58519e-06
2	0	0	1	1	20.3449	-0.196614	-0.197524	-0.00846159	2	-0.000852329	1.67137e-06
2	0	0	1	1	20.3749	-0.199613	-0.200511	-0.00879231	2	-0.000852588	1.76295e-06
2	0	0	1	1	20.4049	-0.202612	-0.203515	-0.00913718	2	-0.000852857	1.85955e-06
2	0	0	1	1	20.4349	-0.205611	-0.20652	-0.009474	2	-0.000853137	1.95657e-06
2	0	0	0	1	20.4647	-0.20861	-0.209533	-0.00980986	2	-0.000853425	2.05549e-06
2	0	0	0	1	20.4947	-0.211609	-0.212517	-0.0101335	2	-0.000853724	2.15354e-06
2	0	0	1	1	20.5557	-0.217707	-0.218601	-0.0105726	2	-0.00085436	2.31117e-06
2	0	0	1	1	20.5857	-0.220706	-0.221589	-0.0109174	2	-0.00085469	2.41917e-06
2	0	0	1	1	20.6157	-0.223704	-0.224608	-0.0112411	2	-0.000855029	2.52483e-06
2	0	0	1	1	20.6457	-0.226703	-0.227597	-0.0115811	2	-0.000855379	2.63583e-06
2	0	0	1	1	20.6757	-0.229702	-0.230585	-0.0118993	2	-0.000855739	2.74381e-06
2	0	0	1	1	20.7057	-0.232701	-0.233595	-0.0122598	2	-0.000856108	2.86383e-06
2	0	0	1	1	20.7357	-0.2357	-0.236583	-0.0125623	2	-0.000856487	2.97202e-06
2	0	0	1	1	20.7657	-0.238699	-0.239607	-0.0128989	2	-0.000856875	3.09066e-06
2	0	0	1	1	20.7957	-0.241698	-0.242588	-0.0132257	2	-0.000857274	3.2084e-06
2	0	0	1	1	20.8257	-0.244697	-0.245604	-0.0135238	2	-0.000857681	3.32149e-06
2	0	0	1	1	20.8557	-0.247696	-0.248586	-0.0138138	2	-0.000858098	3.43393e-06
2	0	0	1	1	20.8857	-0.250695	-0.251584	-0.0141096	2	-0.000858523	3.54974e-06
2	0	0	1	1	20.9157	-0.253694	-0.25459	-0.0143934	2	-0.000858958	3.66442e-06
2	0	0	1	1	20.9457	-0.256693	-0.257573	-0.0146827	2	-0.000859402	3.78187e-06
2	0	0	1	1	20.9757	-0.259692	-0.260591	-0.0150423	2	-0.000859854	3.91987e-06
2	0	0	1	1	21.0056	-0.262697	-0.263578	-0.015284	2	-0.000860314	4.02852e-06
2	0	0	0	1	21.0355	-0.265689	-0.266574	-0.015559	2	-0.000860782	4.14762e-06
2	0	0	0	1	21.0655	-0.268688	-0.269581	-0.0158398	2	-0.000861261	4.27011e-06
2	0	0	0	1	21.0955	-0.271687	-0.272573	-0.0161207	2	-0.000861747	4.39407e-06
2	0	0	0	1	21.1255	-0.274686	-0.275563	-0.0164173	2	-0.000862242	4.524e-06
2	0	0	0	1	21.1555	-0.277685	-0.278593	-0.0166813	2	-0.000862746	4.64729e-06
2	0	0	0	1	21.1855	-0.280684	-0.281574	-0.0169506	2	-0.000863258	4.77284e-06
2	0	0	0	1	21.2155	-0.283683	-0.284567	-0.0172481	2	-0.000863778	4.90825e-06
2	0	0	0	1	21.2455	-0.286682	-0.287573	-0.0175079	2	-0.000864306	5.03481e-06
2	0	0	0	1	21.2755	-0.289681	-0.290544	-0.0178012	2	-0.000864842	5.17205e-06
2	0	0	0	1	21.3055	-0.29268	-0.293568	-0.018093	2	-0.000865387	5.31151e-06
2	0	0	0	1	21.3355	-0.295679	-0.296552	-0.0183494	2	-0.00086594	5.44155e-06
2	0	0	0	1	21.3655	-0.298678	-0.299562	-0.0186234	2	-0.000866502	5.57887e-06
2	0	0	0	1	21.3955	-0.301677	-0.302555	-0.0188985	2	-0.000867071	5.71783e-06
2	0	0	0	1	21.4255	-0.304675	-0.305545	-0.0192111	2	-0.00086765	5.86984e-06
2	0	0	0	1	21.4555	-0.307674	-0.308566	-0.0194741	2	-0.000868236	6.00907e-06
2	0	0	0	1	21.4855	-0.310673	-0.311574	-0.0197651	2	-0.000868832	6.15831e-06
2	0	0	0	1	21.5155	-0.313672	-0.314565	-0.0200484	2	-0.000869435	6.30652e-06
2	0	0	0	1	21.5455	-0.316671	-0.317567	-0.0203475	2	-0.000870047	6.46169e-06
2	0	0	1	1	21.5753	-0.31967	-0.320558	-0.0206404	2	-0.000870664	6.61643e-06
2	0	0	1	1	21.6053	-0.322669	-0.323564	-0.0209454	2	-0.000871294	6.77719e-06
2	0	0	1	1	21.6353	-0.325668	-0.326556	-0.0212047	2	-0.000871933	6.92452e-06
2	0	0	1	1	21.6653	-0.328667	-0.329551	-0.0214996	2	-0.00087258	7.08523e-06
2	0	0	1	1	21.6953	-0.331666	-0.332548	-0.0218228	2	-0.000873237	7.25712e-06
2	0	0	1	1	21.7253	-0.334665	-0.335549	-0.0221339	2	-0.000873902	7.42701e-06
2	0	0	1	1	21.7553	-0.337664	-0.338531	-0.0224163	2	-0.000874577	7.58862e-06
2	0	0	1	1	21.7853	-0.340663	-0.341547	-0.0227338	2	-0.000875261	7.76468e-06
2	0	0	1	1	21.8153	-0.343662	-0.344539	-0.0230233	2	-0.000875954	7.93243e-06
2	0	0	1	1	21.8453	-0.346661	-0.347544	-0.0233377	2	-0.000876657	8.11088e-06
2	0	0	1	1	21.8753	-0.349659	-0.350535	-0.0236633	2	-0.000877369	8.2948e-06
2	0	0	1	1	21.9053	-0.352658	-0.353535	-0.0239783	2	-0.000878091	8.47719e-06
2	0	0	1	1	21.9353	-0.355657	-0.356556	-0.0243294	2	-0.000878823	8.67482e-06
2	0	0	1	1	21.9653	-0.358656	-0.35954	-0.0246683	2	-0.000879565	8.86925e-06
2	0	0	1	1	21.9953	-0.361655	-0.362547	-0.0249578	2	-0.000880316	9.0484e-06
2	0	0	1	1	22.0253	-0.364654	-0.365537	-0.0253032	2	-0.000881077	9.24925e-06
2	0	0	1	1	22.0553	-0.367653	-0.368534	-0.0256248	2	-0.000881849	9.44362e-06
2	0	0	1	1	22.0853	-0.370652	-0.371542	-0.0259605	2	-0.00088263	9.64541e-06
2	0	0	1	1	22.1153	-0.373651	-0.374533	-0.0263399	2	-0.000883422	9.86514e-06
2	0	0	0	1	22.1451	-0.37665	-0.37754	-0.0266462	2	-0.000884219	1.006e-05
2	0	0	0	1	22.1751	-0.379649	-0.380553	-0.0269994	2	-0.000885031	1.02747e-05
2	0	0	0	1	22.2051	-0.382648	-0.383532	-0.0273586	2	-0.000885853	1.04929e-05
2	0	0	0	1	22.2351	-0.385647	-0.38654	-0.0276637	2	-0.000886685	1.06931e-05
2	0	0	0	1	22.2651	-0.388645	-0.389527	-0.0280271	2	-0.000887528	1.09173e-05
2	0	0	0	1	22.2951	-0.391644	-0.392524	-0.0283872	2	-0.000888381	1.11426e-05
2	0	0	0	1	22.3251	-0.394643	-0.395535	-0.0287066	2	-0.000889244	1.13545e-05
2	0	0	0	1	22.3551	-0.397642	-0.398529	-0.0290588	2	-0.000890118	1.15808e-05
2	0	0	0	1	22.3851	-0.400641	-0.401536	-0.0293498	2	-0.000891001	1.1785e-05
2	0	0	0	1	22.4151	-0.40364	-0.404514	-0.0297267	2	-0.000891896	1.20249e-05
2	0	0	0	1	22.4451	-0.406639	-0.407524	-0.0300509	2	-0.0008928	1.22465e-05
2	0	0	0	1	22.4751	-0.409638	-0.410546	-0.0304402	2	-0.000893714	1.24971e-05
2	0	0	0	1	22.5051	-0.412637	-0.413525	-0.0307517	2	-0.000894639	1.27166e-05
2	0	0	0	1	22.5351	-0.415636	-0.416527	-0.0311102	2	-0.000895574	1.29583e-05
2	0	0	0	1	22.5651	-0.418635	-0.419522	-0.0314286	2	-0.000896519	1.3185e-05
2	0	0	0	1	22.5951	-0.421634	-0.422527	-0.0317708	2	-0.000897475	1.3424e-05
2	0	0	0	1	22.6251	-0.424633	-0.425536	-0.0321205	2	-0.00089844	1.36685e-05
2	0	0	0	1	22.6551	-0.427632	-0.428529	-0.0324257	2	-0.000899416	1.38954e-05
2	0	0	0	1	22.685	-0.430637	-0.431536	-0.0328164	2	-0.000900398	1.41614e-05
2	0	0	1	1	22.7149	-0.433629	-0.43451	-0.0331404	2	-0.000901391	1.43998e-05
2	0	0	1	1	22.7449	-0.436628	-0.437501	-0.0334629	2	-0.000902397	1.46401e-05
2	0	0	1	1	22.7749	-0.439627	-0.440523	-0.033783	2	-0.000903412	1.48822e-05
2	0	0	1	1	22.8049	-0.442626	-0.443503	-0.0341261	2	-0.000904438	1.5135e-05
2	0	0	1	1	22.8349	-0.445625	-0.446508	-0.0344965	2	-0.000905474	1.54029e-05
2	0	0	1	1	22.8649	-0.448624	-0.449513	-0.0347843	2	-0.00090652	1.5636e-05
2	0	0	1	1	22.8949	-0.451623	-0.45251	-0.035078	2	-0.000907575	1.58731e-05
2	0	0	1	1	22.9249	-0.454622	-0.455516	-0.0354629	2	-0.000908641	1.61539e-05
2	0	0	1	1	22.9549	-0.457621	-0.458523	-0.0358111	2	-0.000909716	1.64202e-05
2	0	0	1	1	22.9849	-0.46062	-0.461501	-0.0360886	2	-0.000910802	1.66549e-05
2	0	0	1	1	23.0149	-0.463619	-0.464507	-0.0364364	2	-0.000911897	1.6925e-05
2	0	0	1	1	23.0449	-0.466618	-0.467503	-0.0367084	2	-0.000913002	1.71613e-05
2	0	0	1	1	23.0749	-0.469617	-0.470513	-0.0370817	2	-0.000914116	1.74474e-05
2	0	0	1	1	23.1049	-0.472616	-0.473519	-0.0374156	2	-0.000915241	1.7717e-05
2	0	0	1	1	23.1349	-0.475614	-0.476518	-0.0377757	2	-0.000916375	1.80008e-05
2	0	0	1	1	23.1649	-0.478613	-0.479495	-0.0380612	2	-0.00091752	1.82502e-05
2	0	0	1	1	23.1949	-0.481612	-0.482497	-0.0383615	2	-0.000918673	1.85093e-05
2	0	0	1	1	23.2249	-0.484611	-0.485513	-0.0387272	2	-0.000919837	1.88026e-05
2	0	0	0	1	23.2547	-0.48761	-0.488498	-0.0390337	2	-0.000921003	1.90679e-05
2	0	0	0	1	23.2847	-0.490609	-0.491487	-0.0393675	2	-0.000922186	1.93486e-05
2	0	0	0	1	23.3147	-0.493608	-0.494484	-0.0396885	2	-0.000923379	1.96253e-05
2	0	0	0	1	23.3447	-0.496607	-0.497484	-0.0400323	2	-0.000924582	1.99154e-05
2	0	0	0	1	23.3747	-0.499606	-0.500486	-0.0403459	2	-0.000925795	2.01926e-05
2	0	0	0	1	23.4047	-0.502605	-0.503486	-0.0406906	2	-0.000927018	2.04871e-05
2	0	0	0	1	23.4347	-0.505604	-0.506487	-0.0409701	2	-0.00092825	2.07509e-05
2	0	0	0	1	23.4647	-0.508603	-0.509487	-0.0413099	2	-0.000929492	2.10468e-05
2	0	0	0	1	23.4947	-0.511602	-0.512495	-0.0416407	2	-0.000930745	2.13406e-05
2	0	0	0	1	23.5247	-0.514601	-0.515499	-0.0420167	2	-0.000932007	2.16596e-05
2	0	0	0	1	23.5547	-0.517599	-0.518478	-0.0424008	2	-0.000933279	2.19839e-05
2	0	0	0	1	23.5847	-0.520598	-0.521501	-0.0426937	2	-0.000934562	2.22648e-05
2	0	0	0	1	23.6147	-0.523597	-0.524498	-0.0430192	2	-0.000935854	2.25635e-05
2	0	0	0	1	23.6447	-0.526596	-0.527493	-0.0433802	2	-0.000937157	2.28827e-05
2	0	0	0	1	23.6747	-0.529595	-0.530489	-0.0437463	2	-0.00093847	2.3207e-05
2	0	0	0	1	23.7047	-0.532594	-0.533488	-0.0440648	2	-0.000939793	2.35081e-05
2	0	0	0	1	23.7347	-0.535593	-0.536505	-0.0444037	2	-0.000941127	2.38228e-05
2	0	0	0	1	23.7647	-0.538592	-0.539482	-0.0447482	2	-0.000942472	2.41409e-05
2	0	0	0	1	23.7947	-0.541591	-0.5425	-0.0450839	2	-0.000943827	2.4458e-05
2	0	0	1	1	23.8245	-0.54459	-0.545481	-0.0454963	2	-0.000945184	2.48174e-05
2	0	0	1	1	23.8545	-0.547589	-0.548486	-0.0458641	2	-0.000946561	2.51558e-05
2	0	0	1	1	23.8845	-0.550588	-0.551485	-0.0462002	2	-0.000947949	2.54787e-05
2	0	0	1	1	23.9145	-0.553587	-0.554481	-0.0465641	2	-0.000949348	2.58189e-05
2	0	0	1	1	23.9445	-0.556585	-0.557478	-0.0469536	2	-0.000950757	2.61756e-05
2	0	0	1	1	23.9745	-0.559584	-0.560496	-0.0473249	2	-0.000952179	2.65254e-05
2	0	0	1	1	24.0045	-0.562583	-0.563474	-0.0477011	2	-0.000953612	2.68783e-05
2	0	0	1	1	24.0345	-0.565582	-0.566459	-0.0481319	2	-0.000955056	2.72647e-05
2	0	0	1	1	24.0645	-0.568581	-0.569466	-0.0484856	2	-0.000956512	2.76109e-05
2	0	0	1	1	24.0945	-0.57158	-0.572482	-0.0488706	2	-0.00095798	2.79776e-05
2	0	0	1	1	24.1245	-0.574579	-0.575482	-0.0493311	2	-0.00095946	2.83892e-05
2	0	0	1	1	24.1545	-0.577578	-0.578464	-0.0497224	2	-0.000960952	2.87626e-05
2	0	0	1	1	24.1845	-0.580577	-0.581484	-0.0501003	2	-0.000962456	2.91325e-05
2	0	0	1	1	24.2145	-0.583576	-0.584459	-0.0505384	2	-0.000963974	2.95376e-05
2	0	0	1	1	24.2445	-0.586575	-0.587478	-0.0510064	2	-0.000965504	2.99651e-05
2	0	0	1	1	24.2745	-0.589574	-0.59046	-0.0514283	2	-0.000967046	3.03663e-05
2	0	0	1	1	24.3045	-0.592573	-0.593462	-0.0518623	2	-0.000968602	3.07783e-05
2	0	0	1	1	24.3345	-0.595572	-0.596458	-0.0523052	2	-0.000970172	3.11978e-05
2	0	0	1	1	24.3644	-0.598577	-0.599461	-0.0527944	2	-0.00097175	3.16482e-05
2	0	0	0	1	24.3943	-0.601569	-0.602451	-0.0532639	2	-0.000973343	3.20889e-05
2	0	0	0	1	24.4243	-0.604568	-0.605473	-0.0537264	2	-0.000974955	3.25299e-05
2	0	0	0	1	24.4543	-0.607567	-0.608467	-0.0542637	2	-0.000976582	3.30177e-05
2	0	0	0	1	24.4843	-0.610566	-0.611461	-0.0547327	2	-0.000978223	3.34669e-05
2	0	0	0	1	24.5143	-0.613565	-0.614467	-0.0552339	2	-0.00097988	3.39394e-05
2	0	0	0	1	24.5443	-0.616564	-0.617468	-0.0557668	2	-0.000981553	3.44343e-05
2	0	0	0	1	24.5743	-0.619563	-0.620468	-0.0563112	2	-0.000983241	3.49393e-05
2	0	0	0	1	24.6043	-0.622562	-0.62347	-0.0568797	2	-0.000984946	3.54628e-05
2	0	0	0	1	24.6343	-0.625561	-0.626451	-0.057454	2	-0.000986667	3.59921e-05
2	0	0	0	1	24.6643	-0.62856	-0.629473	-0.0580507	2	-0.000988406	3.65413e-05
2	0	0	0	1	24.6943	-0.631559	-0.632453	-0.0586044	2	-0.000990163	3.70645e-05
2	0	0	0	1	24.7243	-0.634558	-0.635455	-0.0592261	2	-0.000991937	3.76356e-05
2	0	0	0	1	24.7543	-0.637557	-0.638464	-0.0598217	2	-0.00099373	3.8194e-05
2	0	0	0	1	24.7843	-0.640556	-0.641453	-0.0604561	2	-0.000995542	3.87797e-05
2	0	0	0	1	24.8143	-0.643554	-0.644467	-0.0611663	2	-0.000997373	3.94197e-05
2	0	0	0	1	24.8443	-0.646553	-0.647446	-0.0617941	2	-0.000999224	4.00084e-05
2	0	0	0	1	24.8743	-0.649552	-0.650433	-0.0624657	2	-0.0010011	4.06298e-05
2	0	0	0	1	24.9043	-0.652551	-0.653444	-0.0632004	2	-0.00100299	4.12979e-05
2	0	0	1	1	24.9341	-0.65555	-0.656461	-0.0639026	2	-0.00100489	4.19495e-05
2	0	0	1	1	24.9641	-0.658549	-0.659439	-0.0646509	2	-0.00100682	4.26333e-05
2	0	0	1	1	24.9941	-0.661548	-0.662444	-0.0654229	2	-0.00100878	4.3339e-05
2	0	0	1	1	25.0241	-0.664547	-0.66544	-0.066169	2	-0.00101076	4.40315e-05
2	0	0	1	1	25.0541	-0.667546	-0.668439	-0.0669146	2	-0.00101277	4.47283e-05
2	0	0	1	1	25.0841	-0.670545	-0.671443	-0.0677188	2	-0.00101479	4.54693e-05
2	0	0	1	1	25.1141	-0.673544	-0.674435	-0.0685449	2	-0.00101684	4.62291e-05
2	0	0	1	1	25.1441	-0.676543	-0.677443	-0.0694135	2	-0.00101892	4.70237e-05
2	0	0	1	1	25.1741	-0.679542	-0.68042	-0.0702465	2	-0.00102102	4.77971e-05
2	0	0	1	1	25.2041	-0.68254	-0.683423	-0.0711046	2	-0.00102315	4.85945e-05
2	0	0	1	1	25.2341	-0.685539	-0.686417	-0.0719879	2	-0.0010253	4.94137e-05
2	0	0	1	1	25.2641	-0.688538	-0.689424	-0.0728597	2	-0.00102748	5.02312e-05
2	0	0	1	1	25.2941	-0.691537	-0.692432	-0.0738196	2	-0.00102969	5.1115e-05
2	0	0	1	1	25.3241	-0.694536	-0.69544	-0.074768	2	-0.00103193	5.19967e-05
2	0	0	1	1	25.3541	-0.697535	-0.698417	-0.0757187	2	-0.00103419	5.28833e-05
2	0	0	1	1	25.3841	-0.700534	-0.701424	-0.0767251	2	-0.00103648	5.38168e-05
2	0	0	1	1	25.4141	-0.703533	-0.704431	-0.0777251	2	-0.00103881	5.4752e-05
2	0	0	1	1	25.4441	-0.706532	-0.707424	-0.0787568	2	-0.00104116	5.57145e-05
2	0	0	1	1	25.4741	-0.709531	-0.710429	-0.0798079	2	-0.00104355	5.66979e-05
2	0	0	0	1	25.5039	-0.71253	-0.713436	-0.0809008	2	-0.00104595	5.77176e-05
2	0	0	0	1	25.5339	-0.715529	-0.716427	-0.0819957	2	-0.0010484	5.87439e-05
2	0	0	0	1	25.5639	-0.718528	-0.719448	-0.0831261	2	-0.00105088	5.9805e-05
2	0	0	0	1	25.5939	-0.721527	-0.722432	-0.0842474	2	-0.0010534	6.0863e-05
2	0	0	0	1	25.6239	-0.724526	-0.72542	-0.0854807	2	-0.00105595	6.20094e-05
2	0	0	0	1	25.6539	-0.727524	-0.728431	-0.0866745	2	-0.00105854	6.31364e-05
2	0	0	0	1	25.6839	-0.730523	-0.731424	-0.0878973	2	-0.00106117	6.42902e-05
2	0	0	0	1	25.7139	-0.733522	-0.734444	-0.0891645	2	-0.00106383	6.54863e-05
2	0	0	0	1	25.7439	-0.736521	-0.737429	-0.0904628	2	-0.00106653	6.67099e-05
2	0	0	0	1	25.7739	-0.73952	-0.740438	-0.0918245	2	-0.00106927	6.79904e-05
2	0	0	0	1	25.8039	-0.742519	-0.743429	-0.0931594	2	-0.00107205	6.92574e-05
2	0	0	0	1	25.8339	-0.745518	-0.746414	-0.094551	2	-0.00107488	7.05742e-05
2	0	0	0	1	25.8639	-0.748517	-0.749403	-0.095915	2	-0.00107774	7.1879e-05
2	0	0	0	1	25.8939	-0.751516	-0.752416	-0.097454	2	-0.00108065	7.33259e-05
2	0	0	0	1	25.9239	-0.754515	-0.75542	-0.0989789	2	-0.0010836	7.47706e-05
2	0	0	0	1	25.9539	-0.757514	-0.758411	-0.10051	2	-0.0010866	7.62278e-05
2	0	0	0	1	25.9839	-0.760513	-0.76141	-0.10203	2	-0.00108965	7.76865e-05
2	0	0	0	1	26.0447	-0.76661	-0.767457	-0.104698	2	-0.00109593	8.03511e-05
2	0	0	0	1	26.0747	-0.769609	-0.770447	-0.106335	2	-0.00109912	8.19257e-05
2	0	0	0	1	26.1047	-0.772608	-0.773462	-0.107981	2	-0.00110236	8.35194e-05
2	0	0	0	1	26.1347	-0.775607	-0.776469	-0.109794	2	-0.00110565	8.52519e-05
2	0	0	0	1	26.1647	-0.778606	-0.779471	-0.111711	2	-0.001109	8.70756e-05
2	0	0	0	1	26.1947	-0.781605	-0.782454	-0.113516	2	-0.0011124	8.8821e-05
2	0	0	0	1	26.2247	-0.784604	-0.785467	-0.115416	2	-0.00111585	9.06552e-05
2	0	0	0	1	26.2547	-0.787603	-0.788455	-0.117286	2	-0.00111937	9.24744e-05
2	0	0	0	1	26.2847	-0.790602	-0.791466	-0.119364	2	-0.00112294	9.44725e-05
2	0	0	0	1	26.3147	-0.793601	-0.794446	-0.121373	2	-0.00112658	9.64246e-05
2	0	0	0	1	26.3447	-0.7966	-0.797452	-0.123302	2	-0.00113027	9.83277e-05
2	0	0	0	1	26.3747	-0.799599	-0.800445	-0.12554	2	-0.00113403	0.000100488
2	0	0	0	1	26.4047	-0.802598	-0.80345	-0.127697	2	-0.00113785	0.000102598
2	0	0	0	1	26.4347	-0.805597	-0.806453	-0.129921	2	-0.00114174	0.000104775
2	0	0	0	1	26.4647	-0.808595	-0.809444	-0.132222	2	-0.0011457	0.000107027
2	0	0	0	1	26.4947	-0.811594	-0.812438	-0.134511	2	-0.00114973	0.000109282
2	0	0	0	1	26.5247	-0.814593	-0.815441	-0.136947	2	-0.00115382	0.000111672
2	0	0	0	1	26.5547	-0.817592	-0.818458	-0.139461	2	-0.00115799	0.000114143
2	0	0	0	1	26.5847	-0.820591	-0.82145	-0.141912	2	-0.00116224	0.000116574
2	0	0	1	1	26.6145	-0.82359	-0.824442	-0.144516	2	-0.00116654	0.000119145
2	0	0	1	1	26.6445	-0.826589	-0.827453	-0.147184	2	-0.00117094	0.000121788
2	0	0	1	1	26.6745	-0.829588	-0.830432	-0.149964	2	-0.00117542	0.000124535
2	0	0	1	1	26.7045	-0.832587	-0.833441	-0.152813	2	-0.00117998	0.00012736
2	0	0	1	1	26.7345	-0.835586	-0.836445	-0.155634	2	-0.00118463	0.000130179
2	0	0	1	1	26.7645	-0.838585	-0.83944	-0.158505	2	-0.00118937	0.000133056
2	0	0	1	1	26.7945	-0.841584	-0.842433	-0.161639	2	-0.0011942	0.00013617
2	0	0	1	1	26.8245	-0.844583	-0.845446	-0.164776	2	-0.00119912	0.000139309
2	0	0	1	1	26.8545	-0.847582	-0.848432	-0.167903	2	-0.00120414	0.000142454
2	0	0	1	1	26.8845	-0.85058	-0.851423	-0.171221	2	-0.00120925	0.000145781
2	0	0	1	1	26.9145	-0.853579	-0.854432	-0.174658	2	-0.00121447	0.000149233
2	0	0	1	1	26.9445	-0.856578	-0.85742	-0.178217	2	-0.00121979	0.000152807
2	0	0	1	1	26.9745	-0.859577	-0.860439	-0.181911	2	-0.00122522	0.000156524
2	0	0	1	1	27.0045	-0.862576	-0.863427	-0.185684	2	-0.00123076	0.000160325
2	0	0	1	1	27.0345	-0.865575	-0.866436	-0.189484	2	-0.00123641	0.000164176
2	0	0	1	1	27.0645	-0.868574	-0.869434	-0.193534	2	-0.00124218	0.000168265
2	0	0	1	1	27.0945	-0.871573	-0.872444	-0.197598	2	-0.00124808	0.000172393
2	0	0	1	1	27.1245	-0.874572	-0.875434	-0.202023	2	-0.0012541	0.000176858
2	0	0	1	1	27.1545	-0.877571	-0.878434	-0.206332	2	-0.00126025	0.000181249
2	0	0	0	1	27.1843	-0.88057	-0.881426	-0.210957	2	-0.00126649	0.000185943
2	0	0	0	1	27.2143	-0.883569	-0.884413	-0.215598	2	-0.00127292	0.000190678
2	0	0	0	1	27.2443	-0.886568	-0.887428	-0.22065	2	-0.00127949	0.000195811
2	0	0	0	1	27.2743	-0.889566	-0.890407	-0.225567	2	-0.0012862	0.000200847
2	0	0	0	1	27.3043	-0.892565	-0.893403	-0.230739	2	-0.00129307	0.000206143
2	0	0	0	1	27.3343	-0.895564	-0.896425	-0.236282	2	-0.00130011	0.000211809
2	0	0	0	1	27.3643	-0.898563	-0.899411	-0.241859	2	-0.0013073	0.000217531
2	1	0	1	0	27.3849	-0.899463	-0.900308	-0.24155	2	-0.00131231	0.000217469
2	1	0	1	0	27.4149	-0.896464	-0.897316	-0.23156	2	-0.00131937	0.000207782
2	1	0	1	0	27.4449	-0.893465	-0.89432	-0.223631	2	-0.00132617	0.000199997
2	1	0	1	0	27.4749	-0.890466	-0.891328	-0.216258	2	-0.00133274	0.000192757
2	1	0	1	0	27.5049	-0.887467	-0.888341	-0.209338	2	-0.0013391	0.000185963
2	1	0	1	0	27.5349	-0.884468	-0.885322	-0.20281	2	-0.00134525	0.000179552
2	1	0	1	0	27.5649	-0.881469	-0.882306	-0.196658	2	-0.00135122	0.000173512
2	1	0	1	0	27.5948	-0.878477	-0.87932	-0.190766	2	-0.00135699	0.000167745
2	1	0	0	0	27.6247	-0.875472	-0.876335	-0.185182	2	-0.00136258	0.000162281
2	1	0	0	0	27.6547	-0.872473	-0.87333	-0.179593	2	-0.00136802	0.000156844
2	1	0	0	0	27.6847	-0.869474	-0.870323	-0.174421	2	-0.0013733	0.000151802
2	1	0	0	0	27.7147	-0.866475	-0.86733	-0.169327	2	-0.00137843	0.000146863
2	1	0	0	0	27.7447	-0.863476	-0.864336	-0.164531	2	-0.00138342	0.000142211
2	1	0	0	0	27.7747	-0.860477	-0.861329	-0.159875	2	-0.00138826	0.000137705
2	1	0	0	0	27.8047	-0.857478	-0.858344	-0.155459	2	-0.00139296	0.000133437
2	1	0	0	0	27.8347	-0.854479	-0.855328	-0.150995	2	-0.00139753	0.000129151
2	1	0	0	0	27.8647	-0.85148	-0.852329	-0.146829	2	-0.00140197	0.000125146
2	1	0	0	0	27.8947	-0.848481	-0.849344	-0.142784	2	-0.00140629	0.000121273
2	1	0	0	0	27.9247	-0.845482	-0.846335	-0.13893	2	-0.00141049	0.000117582
2	1	0	0	0	27.9547	-0.842483	-0.843338	-0.135198	2	-0.00141457	0.000114017
2	1	0	0	0	27.9847	-0.839484	-0.840332	-0.131446	2	-0.00141855	0.000110458
2	1	0	0	0	28.0147	-0.836485	-0.83735	-0.128043	2	-0.00142241	0.000107217
2	1	0	0	0	28.0447	-0.833487	-0.834345	-0.124587	2	-0.00142618	0.000103948
2	1	0	0	0	28.0747	-0.830488	-0.831346	-0.121342	2	-0.00142984	0.000100877
2	1	0	0	0	28.1047	-0.827489	-0.828341	-0.118144	2	-0.0014334	9.78638e-05
2	1	0	0	0	28.1347	-0.82449	-0.825325	-0.114991	2	-0.00143688	9.49045e-05
2	1	0	1	0	28.1645	-0.821491	-0.822348	-0.11202	2	-0.00144023	9.21198e-05
2	1	0	1	0	28.1945	-0.818492	-0.819348	-0.109146	2	-0.00144353	8.94286e-05
2	1	0	1	0	28.2245	-0.815493	-0.816344	-0.106442	2	-0.00144674	8.68933e-05
2	1	0	1	0	28.2545	-0.812494	-0.81334	-0.103724	2	-0.00144986	8.43628e-05
2	1	0	1	0	28.2845	-0.809495	-0.810358	-0.101211	2	-0.00145291	8.20168e-05
2	1	0	1	0	28.3145	-0.806496	-0.807346	-0.0985597	2	-0.00145588	7.95718e-05
2	1	0	1	0	28.3445	-0.803497	-0.804323	-0.0962445	2	-0.00145878	7.74116e-05
2	1	0	1	0	28.3745	-0.800498	-0.801325	-0.0937687	2	-0.0014616	7.51392e-05
2	1	0	1	0	28.4045	-0.797499	-0.798338	-0.0914808	2	-0.00146435	7.30326e-05
2	1	0	1	0	28.4345	-0.7945	-0.795331	-0.089269	2	-0.00146704	7.09984e-05
2	1	0	1	0	28.4645	-0.791502	-0.792336	-0.0870681	2	-0.00146966	6.89872e-05
2	1	0	1	0	28.4945	-0.788503	-0.789343	-0.0849877	2	-0.00147222	6.70845e-05
2	1	0	1	0	28.5245	-0.785504	-0.786362	-0.0830236	2	-0.00147471	6.52865e-05
2	1	0	1	0	28.5545	-0.782505	-0.783361	-0.0811161	2	-0.00147715	6.35432e-05
2	1	0	1	0	28.5845	-0.779506	-0.780364	-0.0790867	2	-0.00147952	6.17164e-05
2	1	0	1	0	28.6145	-0.776507	-0.777337	-0.0772304	2	-0.00148185	6.0034e-05
2	1	0	1	0	28.6445	-0.773508	-0.774343	-0.0754429	2	-0.00148411	5.84187e-05
2	1	0	1	0	28.6745	-0.770509	-0.771367	-0.073856	2	-0.00148632	5.697e-05
2	1	0	1	0	28.7045	-0.76751	-0.768354	-0.072069	2	-0.00148849	5.53745e-05
2	1	0	0	0	28.7343	-0.764511	-0.765349	-0.0703633	2	-0.00149058	5.38525e-05
2	1	0	0	0	28.7643	-0.761512	-0.76236	-0.0688058	2	-0.00149265	5.24548e-05
2	1	0	0	0	28.7943	-0.758513	-0.759363	-0.0672278	2	-0.00149466	5.10504e-05
2	1	0	0	0	28.8243	-0.755514	-0.756364	-0.0657837	2	-0.00149663	4.97564e-05
2	1	0	0	0	28.8543	-0.752515	-0.753362	-0.0643225	2	-0.00149856	4.84581e-05
2	1	0	0	0	28.8843	-0.749517	-0.750357	-0.0628813	2	-0.00150044	4.71835e-05
2	1	0	0	0	28.9143	-0.746518	-0.747368	-0.0615729	2	-0.00150229	4.60177e-05
2	1	0	0	0	28.9443	-0.743519	-0.744364	-0.0601418	2	-0.00150409	4.47674e-05
2	1	0	0	0	28.9743	-0.74052	-0.741376	-0.0590007	2	-0.00150585	4.37417e-05
2	1	0	0	0	29.0043	-0.737521	-0.738349	-0.0576222	2	-0.00150757	4.25453e-05
2	1	0	0	0	29.0343	-0.734522	-0.735368	-0.0564942	2	-0.00150926	4.1544e-05
2	1	0	0	0	29.0643	-0.731523	-0.732365	-0.0552852	2	-0.00151091	4.0489e-05
2	1	0	0	0	29.0943	-0.728524	-0.729361	-0.0540309	2	-0.00151253	3.94081e-05
2	1	0	0	0	29.1243	-0.725525	-0.726361	-0.0528958	2	-0.00151411	3.84214e-05
2	1	0	0	0	29.1543	-0.722526	-0.723367	-0.0519149	2	-0.00151566	3.75535e-05
2	1	0	0	0	29.1843	-0.719527	-0.720376	-0.0509243	2	-0.00151717	3.66847e-05
2	1	0	0	0	29.2143	-0.716528	-0.717361	-0.0498533	2	-0.00151866	3.57628e-05
2	1	0	0	0	29.2443	-0.713529	-0.714353	-0.0487566	2	-0.00152011	3.48294e-05
2	1	0	0	0	29.2742	-0.710537	-0.711366	-0.0478098	2	-0.00152153	3.40103e-05
2	1	0	1	0	29.3041	-0.707532	-0.708364	-0.0467733	2	-0.00152292	3.31325e-05
2	1	0	1	0	29.3496	-0.702983	-0.703801	-0.0451102	2	-0.00152497	3.17486e-05
2	1	0	0	0	29.3951	-0.698435	-0.699233	-0.0436337	2	-0.00152698	3.05101e-05
2	1	0	0	0	29.4251	-0.695436	-0.696249	-0.042831	2	-0.00152827	2.9821e-05
2	1	0	0	0	29.4551	-0.692437	-0.693255	-0.0419516	2	-0.00152953	2.90832e-05
2	1	0	0	0	29.4851	-0.689438	-0.690246	-0.0411763	2	-0.00153077	2.84218e-05
2	1	0	0	0	29.5151	-0.686439	-0.687247	-0.0403426	2	-0.00153198	2.77254e-05
2	1	0	0	0	29.5451	-0.68344	-0.684249	-0.039541	2	-0.00153318	2.70559e-05
2	1	0	0	0	29.5751	-0.680441	-0.681252	-0.0387749	2	-0.00153434	2.64155e-05
2	1	0	0	0	29.6051	-0.677442	-0.678263	-0.0380245	2	-0.00153549	2.57906e-05
2	1	0	0	0	29.6351	-0.674443	-0.675249	-0.0372945	2	-0.00153661	2.5183e-05
2	1	0	0	0	29.6651	-0.671444	-0.672248	-0.0365839	2	-0.00153771	2.45934e-05
2	1	0	0	0	29.6951	-0.668446	-0.669263	-0.0358816	2	-0.00153879	2.40142e-05
2	1	0	0	0	29.7251	-0.665447	-0.666253	-0.0352239	2	-0.00153985	2.3468e-05
2	1	0	0	0	29.7551	-0.662448	-0.663263	-0.0345485	2	-0.00154089	2.29147e-05
2	1	0	0	0	29.7851	-0.659449	-0.660249	-0.0338755	2	-0.00154191	2.23663e-05
2	1	0	0	0	29.8151	-0.65645	-0.657254	-0.0332467	2	-0.00154291	2.18515e-05
2	1	0	1	0	29.8449	-0.653451	-0.654263	-0.0325837	2	-0.00154389	2.13183e-05
2	1	0	1	0	29.8749	-0.650452	-0.651246	-0.0319392	2	-0.00154485	2.08003e-05
2	1	0	1	0	29.9049	-0.647453	-0.648238	-0.0314014	2	-0.00154579	2.03556e-05
2	1	0	1	0	29.9349	-0.644454	-0.645263	-0.0308264	2	-0.00154672	1.98912e-05
2	1	0	1	0	29.9649	-0.641455	-0.642262	-0.0302651	2	-0.00154763	1.94381e-05
2	1	0	1	0	29.9949	-0.638456	-0.639273	-0.0296693	2	-0.00154852	1.89668e-05
2	1	0	1	0	30.0249	-0.635457	-0.636273	-0.0291394	2	-0.00154939	1.85406e-05
2	1	0	1	0	30.0549	-0.632458	-0.633276	-0.0285909	2	-0.00155025	1.8106e-05
2	1	0	1	0	30.0849	-0.629459	-0.63029	-0.0280694	2	-0.0015511	1.76919e-05
2	1	0	1	0	30.1149	-0.626461	-0.627265	-0.0275465	2	-0.00155192	1.7279e-05
2	1	0	1	0	30.1449	-0.623462	-0.624265	-0.0270614	2	-0.00155274	1.68935e-05
2	1	0	1	0	30.1749	-0.620463	-0.621268	-0.0265052	2	-0.00155353	1.64668e-05
2	1	0	1	0	30.2049	-0.617464	-0.61825	-0.0260727	2	-0.00155432	1.61194e-05
2	1	0	1	0	30.2349	-0.614465	-0.615277	-0.0256181	2	-0.00155509	1.57622e-05
2	1	0	1	0	30.2649	-0.611466	-0.612256	-0.0251665	2	-0.00155584	1.54083e-05
2	1	0	1	0	30.2949	-0.608467	-0.609263	-0.0247228	2	-0.00155658	1.50627e-05
2	1	0	1	0	30.3249	-0.605468	-0.606263	-0.0242433	2	-0.00155731	1.46978e-05
2	1	0	1	0	30.3549	-0.602469	-0.603273	-0.0238514	2	-0.00155802	1.43889e-05
2	1	0	1	0	30.3849	-0.59947	-0.600271	-0.0233988	2	-0.00155873	1.40456e-05
2	1	0	0	0	30.4147	-0.596471	-0.597258	-0.0230058	2	-0.00155941	1.37404e-05
2	1	0	0	0	30.4447	-0.593472	-0.594271	-0.022595	2	-0.00156009	1.34276e-05
2	1	0	0	0	30.4747	-0.590473	-0.591266	-0.0221904	2	-0.00156075	1.31204e-05
2	1	0	0	0	30.5047	-0.587474	-0.588286	-0.0218069	2	-0.0015614	1.28287e-05
2	1	0	0	0	30.5347	-0.584476	-0.585278	-0.021434	2	-0.00156205	1.25449e-05
2	1	0	0	0	30.5647	-0.581477	-0.582274	-0.0210038	2	-0.00156268	1.22299e-05
2	1	0	0	0	30.5947	-0.578478	-0.579276	-0.0206657	2	-0.0015633	1.19712e-05
2	1	0	0	0	30.6247	-0.575479	-0.576277	-0.0203237	2	-0.0015639	1.17121e-05
2	1	0	0	0	30.6547	-0.57248	-0.573282	-0.019943	2	-0.0015645	1.14329e-05
2	1	0	0	0	30.6847	-0.569481	-0.570272	-0.0195628	2	-0.00156509	1.11561e-05
2	1	0	0	0	30.7147	-0.566482	-0.567277	-0.0192639	2	-0.00156566	1.0928e-05
2	1	0	0	0	30.7447	-0.563483	-0.564269	-0.0188832	2	-0.00156623	1.06552e-05
2	1	0	0	0	30.7747	-0.560484	-0.561275	-0.0185352	2	-0.00156678	1.04033e-05
2	1	0	0	0	30.8047	-0.557485	-0.558265	-0.0181877	2	-0.00156733	1.01536e-05
2	1	0	0	0	30.8347	-0.554486	-0.555278	-0.017906	2	-0.00156786	9.94281e-06
2	1	0	0	0	30.8647	-0.551487	-0.552266	-0.0175152	2	-0.00156839	9.67306e-06
2	1	0	0	0	30.8947	-0.548488	-0.549282	-0.017245	2	-0.0015689	9.47237e-06
2	1	0	0	0	30.9247	-0.545489	-0.546282	-0.0168997	2	-0.00156941	9.23199e-06
2	1	0	0	0	30.9546	-0.542493	-0.54328	-0.0165719	2	-0.0015699	9.00317e-06
2	1	0	1	0	30.9845	-0.539492	-0.540286	-0.0162232	2	-0.00157039	8.76514e-06
2	1	0	1	0	31.0145	-0.536493	-0.537277	-0.0159706	2	-0.00157086	8.58062e-06
2	1	0	1	0	31.0445	-0.533494	-0.534284	-0.0156639	2	-0.00157133	8.36899e-06
2	1	0	1	0	31.0745	-0.530495	-0.531274	-0.015356	2	-0.00157179	8.15826e-06
2	1	0	1	0	31.1045	-0.527496	-0.528295	-0.015094	2	-0.00157224	7.97405e-06
2	1	0	1	0	31.1345	-0.524497	-0.525293	-0.0147988	2	-0.00157268	7.77369e-06
2	1	0	1	0	31.1645	-0.521498	-0.522279	-0.0144778	2	-0.00157311	7.56147e-06
2	1	0	1	0	31.1945	-0.518499	-0.519286	-0.014161	2	-0.00157353	7.35358e-06
2	1	0	1	0	31.2245	-0.5155	-0.516306	-0.0138579	2	-0.00157395	7.15492e-06
2	1	0	1	0	31.2545	-0.512501	-0.513302	-0.0136028	2	-0.00157435	6.98237e-06
2	1	0	1	0	31.2845	-0.509502	-0.510282	-0.0132441	2	-0.00157475	6.7582e-06
2	1	0	1	0	31.3145	-0.506503	-0.50728	-0.012912	2	-0.00157513	6.55002e-06
2	1	0	1	0	31.3445	-0.503505	-0.504297	-0.0126824	2	-0.00157551	6.3957e-06
2	1	0	1	0	31.3745	-0.500506	-0.501284	-0.0123771	2	-0.00157588	6.20445e-06
2	1	0	1	0	31.4045	-0.497507	-0.498287	-0.0120667	2	-0.00157624	6.0127e-06
2	1	0	1	0	31.4345	-0.494508	-0.495293	-0.0118015	2	-0.00157659	5.8452e-06
2	1	0	1	0	31.4645	-0.491509	-0.492288	-0.0115462	2	-0.00157694	5.68406e-06
2	1	0	1	0	31.4945	-0.48851	-0.489289	-0.01124	2	-0.00157727	5.49959e-06
2	1	0	0	0	31.5243	-0.485511	-0.486287	-0.0109468	2	-0.0015776	5.32328e-06
2	1	0	0	0	31.5543	-0.482512	-0.483297	-0.0107232	2	-0.00157791	5.18248e-06
2	1	0	0	0	31.5843	-0.479513	-0.480302	-0.0104146	2	-0.00157822	5.00216e-06
2	1	0	0	0	31.6143	-0.476514	-0.4773	-0.0101194	2	-0.00157852	4.82999e-06
2	1	0	0	0	31.6443	-0.473515	-0.474316	-0.00981504	2	-0.00157882	4.65543e-06
2	1	0	0	0	31.6743	-0.470516	-0.471299	-0.00956738	2	-0.0015791	4.50909e-06
2	1	0	0	0	31.7043	-0.467517	-0.468312	-0.00925391	2	-0.00157937	4.33371e-06
2	1	0	0	0	31.7343	-0.464518	-0.465306	-0.00894161	2	-0.00157964	4.16058e-06
2	1	0	0	0	31.7643	-0.461519	-0.462306	-0.00870186	2	-0.0015799	4.02292e-06
2	1	0	0	0	31.7943	-0.45852	-0.459308	-0.00840185	2	-0.00158015	3.85903e-06
2	1	0	0	0	31.8243	-0.455522	-0.456312	-0.00814036	2	-0.00158039	3.71454e-06
2	1	0	0	0	31.8543	-0.452523	-0.4533	-0.00787096	2	-0.00158062	3.56791e-06
2	1	0	0	0	31.8843	-0.449524	-0.450317	-0.0075508	2	-0.00158085	3.40025e-06
2	1	0	0	0	31.9143	-0.446525	-0.447323	-0.0072972	2	-0.00158107	3.26421e-06
2	1	0	0	0	31.9443	-0.443526	-0.44431	-0.00700123	2	-0.00158127	3.11072e-06
2	1	0	0	0	31.9743	-0.440527	-0.441312	-0.00674373	2	-0.00158147	2.97608e-06
2	1	0	0	0	32.0043	-0.437528	-0.438317	-0.00644402	2	-0.00158166	2.82452e-06
2	1	0	0	0	32.0343	-0.434529	-0.43531	-0.00616272	2	-0.00158185	2.68269e-06
2	1	0	0	0	32.0643	-0.43153	-0.432327	-0.00590184	2	-0.00158202	2.55152e-06
2	1	0	1	0	32.0941	-0.428531	-0.429335	-0.00559835	2	-0.00158218	2.40357e-06
2	1	0	1	0	32.1241	-0.425532	-0.426336	-0.00532776	2	-0.00158234	2.27141e-06
2	1	0	1	0	32.1541	-0.422533	-0.423322	-0.00507202	2	-0.00158249	2.1471e-06
2	1	0	0	0	32.2151	-0.416436	-0.417231	-0.00427476	2	-0.00158277	1.78356e-06
2	1	0	0	0	32.2451	-0.413437	-0.414233	-0.00402705	2	-0.00158289	1.66814e-06
2	1	0	0	0	32.2751	-0.410438	-0.411236	-0.00372885	2	-0.00158301	1.53344e-06
2	1	0	0	0	32.3051	-0.407439	-0.408236	-0.00344595	2	-0.00158312	1.40676e-06
2	1	0	0	0	32.3351	-0.40444	-0.405218	-0.0031617	2	-0.00158322	1.28118e-06
2	1	0	0	0	32.3651	-0.401441	-0.402229	-0.00291281	2	-0.00158331	1.17162e-06
2	1	0	0	0	32.3951	-0.398442	-0.39922	-0.00262088	2	-0.00158339	1.04631e-06
2	1	0	0	0	32.4251	-0.395443	-0.396232	-0.00233764	2	-0.00158346	9.26248e-07
2	1	0	0	0	32.4551	-0.392444	-0.39322	-0.00206771	2	-0.00158353	8.13066e-07
2	1	0	0	0	32.4851	-0.389445	-0.390226	-0.00181755	2	-0.00158359	7.09257e-07
2	1	0	0	0	32.5151	-0.386446	-0.387241	-0.00152486	2	-0.00158364	5.90487e-07
2	1	0	0	0	32.5451	-0.383447	-0.384218	-0.0012616	2	-0.00158368	4.8473e-07
2	1	0	0	0	32.5751	-0.380448	-0.381227	-0.000998134	2	-0.00158371	3.80516e-07
2	1	0	0	0	32.6051	-0.37745	-0.378233	-0.00072465	2	-0.00158374	2.74087e-07
2	1	0	0	0	32.635	-0.374451	-0.375232	-0.000448985	2	-0.00158376	1.68473e-07
2	1	0	1	0	32.6649	-0.371452	-0.372255	-0.000214386	2	-0.00158377	7.98063e-08
2	1	0	1	0	32.6949	-0.368453	-0.369237	6.46573e-05	2	-0.00158377	2.38739e-08
2	1	0	1	0	32.7249	-0.365454	-0.366225	0.000345207	2	-0.00158376	1.26423e-07
2	1	0	1	0	32.7549	-0.362455	-0.363243	0.000598433	2	-0.00158375	2.17377e-07
2	1	0	1	0	32.7849	-0.359456	-0.360244	0.000864277	2	-0.00158373	3.1135e-07
2	1	0	1	0	32.8149	-0.356457	-0.357241	0.00111426	2	-0.0015837	3.9806e-07
2	1	0	1	0	32.8449	-0.353458	-0.354233	0.00138033	2	-0.00158366	4.88958e-07
2	1	0	1	0	32.8749	-0.350459	-0.351241	0.00161429	2	-0.00158361	5.67006e-07
2	1	0	1	0	32.9049	-0.34746	-0.348248	0.00188826	2	-0.00158356	6.57582e-07
2	1	0	1	0	32.9349	-0.344461	-0.345231	0.00214166	2	-0.0015835	7.39368e-07
2	1	0	1	0	32.9649	-0.341462	-0.34223	0.00237659	2	-0.00158343	8.13342e-07
2	1	0	1	0	32.9949	-0.338463	-0.339246	0.00263387	2	-0.00158336	8.93528e-07
2	1	0	1	0	33.0249	-0.335465	-0.336233	0.00288107	2	-0.00158327	9.68713e-07
2	1	0	1	0	33.0549	-0.332466	-0.333247	0.00312466	2	-0.00158318	1.04128e-06
2	1	0	1	0	33.0849	-0.329467	-0.330251	0.00335973	2	-0.00158309	1.10956e-06
2	1	0	1	0	33.1149	-0.326468	-0.327238	0.00362207	2	-0.00158298	1.18528e-06
2	1	0	1	0	33.1449	-0.323469	-0.32425	0.00387428	2	-0.00158287	1.25624e-06
2	1	0	1	0	33.1749	-0.32047	-0.32124	0.0041162	2	-0.00158275	1.32229e-06
2	1	0	0	0	33.2047	-0.317471	-0.318241	0.00439099	2	-0.00158262	1.39739e-06
2	1	0	0	0	33.2347	-0.314472	-0.315233	0.00463502	2	-0.00158248	1.46111e-06
2	1	0	0	0	33.2647	-0.311473	-0.312261	0.00488128	2	-0.00158234	1.52423e-06
2	1	0	0	0	33.2947	-0.308474	-0.309255	0.00514188	2	-0.00158219	1.59015e-06
2	1	0	0	0	33.3247	-0.305475	-0.306235	0.00540203	2	-0.00158203	1.65429e-06
2	1	0	0	0	33.3547	-0.302476	-0.303246	0.00565997	2	-0.00158187	1.71637e-06
2	1	0	0	0	33.3847	-0.299477	-0.300242	0.0059051	2	-0.00158169	1.77296e-06
2	1	0	0	0	33.4147	-0.296478	-0.297241	0.00618429	2	-0.00158151	1.83822e-06
2	1	0	0	0	33.4447	-0.29348	-0.294237	0.00645537	2	-0.00158132	1.8994e-06
2	1	0	0	0	33.4747	-0.290481	-0.291229	0.00674399	2	-0.00158112	1.96405e-06
2	1	0	0	0	33.5047	-0.287482	-0.288252	0.00701416	2	-0.00158092	2.02184e-06
2	1	0	0	0	33.5347	-0.284483	-0.285248	0.00728851	2	-0.0015807	2.07903e-06
2	1	0	0	0	33.5647	-0.281484	-0.282249	0.00757072	2	-0.00158048	2.13683e-06
2	1	0	0	0	33.5947	-0.278485	-0.279262	0.00787278	2	-0.00158025	2.19857e-06
2	1	0	0	0	33.6247	-0.275486	-0.27625	0.00817242	2	-0.00158	2.25764e-06
2	1	0	0	0	33.6547	-0.272487	-0.273243	0.00848977	2	-0.00157975	2.31977e-06
2	1	0	0	0	33.6847	-0.269488	-0.270239	0.00880126	2	-0.00157949	2.37844e-06
2	1	0	0	0	33.7147	-0.266489	-0.26725	0.00914022	2	-0.00157922	2.44273e-06
2	1	0	0	0	33.7447	-0.26349	-0.264233	0.00946797	2	-0.00157895	2.50175e-06
2	1	0	1	0	33.7745	-0.260491	-0.261252	0.009792	2	-0.00157866	2.55818e-06
2	1	0	1	0	33.8045	-0.257492	-0.258255	0.010155	2	-0.00157836	2.62257e-06
2	1	0	0	0	33.8655	-0.251395	-0.252182	0.0106052	2	-0.00157772	2.67444e-06
2	1	0	0	0	33.8955	-0.248396	-0.249185	0.0110032	2	-0.00157739	2.74184e-06
2	1	0	0	0	33.9255	-0.245397	-0.246191	0.011368	2	-0.00157705	2.79869e-06
2	1	0	0	0	33.9555	-0.242398	-0.243189	0.0117409	2	-0.00157669	2.85526e-06
2	1	0	0	0	33.9855	-0.239399	-0.240182	0.0121388	2	-0.00157633	2.91552e-06
2	1	0	0	0	34.0155	-0.2364	-0.23718	0.0125266	2	-0.00157595	2.97105e-06
2	1	0	0	0	34.0455	-0.233401	-0.23419	0.0128737	2	-0.00157556	3.01489e-06
2	1	0	0	0	34.0755	-0.230402	-0.231183	0.013297	2	-0.00157516	3.07404e-06
2	1	0	0	0	34.1055	-0.227403	-0.22819	0.0137026	2	-0.00157475	3.1268e-06
2	1	0	0	0	34.1355	-0.224404	-0.225188	0.0140879	2	-0.00157433	3.17243e-06
2	1	0	0	0	34.1655	-0.221405	-0.222192	0.0144883	2	-0.00157389	3.21919e-06
2	1	0	0	0	34.1955	-0.218406	-0.219173	0.0148901	2	-0.00157344	3.2635e-06
2	1	0	0	0	34.2255	-0.215407	-0.2162	0.0153172	2	-0.00157298	3.31157e-06
2	1	0	0	0	34.2555	-0.212408	-0.2132	0.0157372	2	-0.00157251	3.35517e-06
2	1	0	0	0	34.2855	-0.20941	-0.210215	0.0161226	2	-0.00157203	3.38921e-06
2	1	0	0	0	34.3154	-0.206406	-0.207202	0.0166415	2	-0.00157153	3.44815e-06
2	1	0	1	0	34.3453	-0.203412	-0.204196	0.0169871	2	-0.00157102	3.4687e-06
2	1	0	1	0	34.3753	-0.200413	-0.2012	0.0174012	2	-0.0015705	3.50112e-06
2	1	0	1	0	34.4053	-0.197414	-0.198195	0.0177817	2	-0.00156996	3.52424e-06
2	1	0	1	0	34.4353	-0.194415	-0.195214	0.0182586	2	-0.00156941	3.56435e-06
2	1	0	1	0	34.4653	-0.191416	-0.192209	0.0186933	2	-0.00156885	3.59301e-06
2	1	0	1	0	34.4953	-0.188417	-0.189198	0.0190909	2	-0.00156828	3.61195e-06
2	1	0	1	0	34.5253	-0.185418	-0.186191	0.0195397	2	-0.00156769	3.63811e-06
2	1	0	1	0	34.5553	-0.182419	-0.183197	0.0199554	2	-0.00156709	3.65577e-06
2	1	0	1	0	34.5853	-0.17942	-0.180206	0.0203809	2	-0.00156648	3.67276e-06
2	1	0	1	0	34.6153	-0.176421	-0.177212	0.0208039	2	-0.00156586	3.6867e-06
2	1	0	1	0	34.6453	-0.173422	-0.174208	0.0212321	2	-0.00156522	3.6988e-06
2	1	0	1	0	34.6753	-0.170423	-0.171198	0.0216859	2	-0.00156457	3.71259e-06
2	1	0	1	0	34.7053	-0.167425	-0.168209	0.0221127	2	-0.0015639	3.71955e-06
2	1	0	1	0	34.7353	-0.164426	-0.165197	0.0225053	2	-0.00156323	3.71782e-06
2	1	0	1	0	34.7653	-0.161427	-0.162214	0.0229542	2	-0.00156254	3.7235e-06
2	1	0	1	0	34.7953	-0.158428	-0.159207	0.023305	2	-0.00156184	3.71031e-06
2	1	0	1	0	34.8253	-0.155429	-0.156223	0.02372	2	-0.00156112	3.7056e-06
2	1	0	1	0	34.8553	-0.15243	-0.153216	0.0241197	2	-0.0015604	3.69553e-06
2	1	0	0	0	34.8851	-0.149431	-0.150209	0.0245733	2	-0.00155967	3.69114e-06
2	1	0	0	0	34.9151	-0.146432	-0.147197	0.0249635	2	-0.00155891	3.67455e-06
2	1	0	0	0	34.9451	-0.143433	-0.144209	0.0253494	2	-0.00155815	3.6556e-06
2	1	0	0	0	34.9751	-0.140434	-0.141207	0.0256608	2	-0.00155738	3.62348e-06
2	1	0	0	0	35.0051	-0.137435	-0.138232	0.0260218	2	-0.0015566	3.59705e-06
2	1	0	0	0	35.0351	-0.134436	-0.135202	0.0263623	2	-0.0015558	3.56424e-06
2	1	0	0	0	35.0651	-0.131437	-0.132229	0.0266425	2	-0.001555	3.52291e-06
2	1	0	0	0	35.0951	-0.128439	-0.129209	0.0269176	2	-0.00155419	3.478e-06
2	1	0	0	0	35.1251	-0.12544	-0.126235	0.0271943	2	-0.00155337	3.43288e-06
2	1	0	0	0	35.1551	-0.122441	-0.123232	0.0273709	2	-0.00155255	3.37296e-06
2	1	0	0	0	35.1851	-0.119442	-0.120239	0.0275416	2	-0.00155172	3.31159e-06
2	1	0	0	0	35.2151	-0.116443	-0.117253	0.0276476	2	-0.00155089	3.24176e-06
2	1	0	0	0	35.2451	-0.113444	-0.114237	0.0277375	2	-0.00155005	3.16866e-06
2	1	0	0	0	35.2751	-0.110445	-0.111217	0.0278279	2	-0.00154921	3.09493e-06
2	1	0	0	0	35.3051	-0.107446	-0.10821	0.0278397	2	-0.00154837	3.01252e-06
2	1	0	0	0	35.3351	-0.104447	-0.105216	0.0277889	2	-0.00154752	2.92384e-06
2	1	0	0	0	35.3651	-0.101448	-0.102219	0.0277135	2	-0.00154668	2.83286e-06
2	1	0	0	0	35.3951	-0.0984492	-0.0992316	0.0275442	2	-0.00154585	2.73325e-06
2	1	0	0	0	35.4251	-0.0954503	-0.0962268	0.0274196	2	-0.00154502	2.6385e-06
2	1	0	1	0	35.4549	-0.0924513	-0.0932304	0.0272326	2	-0.00154419	2.5389e-06
2	1	0	1	0	35.4849	-0.0894524	-0.0902435	0.0269983	2	-0.00154337	2.43642e-06
2	1	0	1	0	35.5149	-0.0864535	-0.0872201	0.0267698	2	-0.00154256	2.33487e-06
2	1	0	1	0	35.5449	-0.0834546	-0.0842224	0.026452	2	-0.00154175	2.22785e-06
2	1	0	1	0	35.5749	-0.0804556	-0.0812409	0.0261244	2	-0.00154096	2.12237e-06
2	1	0	1	0	35.6049	-0.0774567	-0.0782403	0.0257891	2	-0.00154017	2.01775e-06
2	1	0	1	0	35.6349	-0.0744578	-0.0752341	0.0254281	2	-0.0015394	1.91306e-06
2	1	0	1	0	35.6649	-0.0714589	-0.0722272	0.0250758	2	-0.00153863	1.81115e-06
2	1	0	1	0	35.6949	-0.0684599	-0.0692293	0.024662	2	-0.00153788	1.70734e-06
2	1	0	1	0	35.7249	-0.065461	-0.0662533	0.0242181	2	-0.00153714	1.60453e-06
2	1	0	1	0	35.7549	-0.0624621	-0.0632313	0.0238437	2	-0.00153641	1.50767e-06
2	1	0	1	0	35.7849	-0.0594631	-0.0602449	0.0234854	2	-0.00153569	1.41487e-06
2	1	0	1	0	35.8149	-0.0564642	-0.0572417	0.0230689	2	-0.00153499	1.3205e-06
2	1	0	1	0	35.8449	-0.0534653	-0.0542566	0.0226571	2	-0.00153429	1.2293e-06
2	1	0	1	0	35.8749	-0.0504664	-0.0512592	0.0222981	2	-0.00153361	1.14298e-06
2	1	0	1	0	35.9049	-0.0474674	-0.0482571	0.0219297	2	-0.00153294	1.05826e-06
2	1	0	1	0	35.9349	-0.0444685	-0.0452467	0.0215865	2	-0.00153228	9.76718e-07
2	1	0	1	0	35.9649	-0.0414696	-0.0422692	0.0212071	2	-0.00153163	8.96409e-07
2	1	0	1	0	35.9933	-0.0386189	-0.0393976	0.0208894	2	-0.00153103	8.22993e-07