File: TAP_Report/Data/Res_growth/mg6_2_2.mpt
EC-Lab ASCII FILE
Nb header lines : 54

Cyclic Voltammetry

Run on channel : 1 (SN 0696)
User :
Electrode connection : standard
Ewe ctrl range : min = -2.50 V, max = 2.50 V
Ewe,I filtering : 50 kHz
Channel : Grounded
Acquisition started on : 01/18/2017 14:30:28
Saved on :
	File : mg6_2.mpr
	Directory : H:\EC-Lab\Data\Resazurin Bulk 18-1-17\
	Host : 144.32.136.43
Device : SP-300 (SN 0182)
Address : USB
EC-Lab for windows v10.44 (software)
Internet server v10.44 (firmware)
Command interpretor v10.44 (firmware)
Electrode material :
Initial state :
Electrolyte :
Comments :
Cable : standard
Reference electrode : SCE Saturated Calomel Electrode (0.241 V)
Electrode surface area : 0.001 cm²
Characteristic mass : 0.001 g
Equivalent Weight : 0.000 g/eq.
Density : 0.000 g/cm3
Ei (V)              0.000
vs.                 Eoc
dE/dt               100.000
dE/dt unit          mV/s
E1 (V)              0.000
vs.                 Ref
Step percent        50
N                   10
E range min (V)     -2.500
E range max (V)     2.500
I Range             Auto
I Range min         Unset
I Range max         Unset
I Range init        Unset
Bandwidth           8
E2 (V)              -0.900
vs.                 Ref
nc cycles           2
Reverse Scan        1
Ef (V)              0.000
vs.                 Eoc

mode	ox/red	error	control changes	counter inc.	time/s	control/V	Ewe/V	<I>/mA	cycle number	(Q-Qo)/C	P/W
2	1	0	0	1	17.9966	-0.0481172	-0.0488946	0.0217489	2	-0.000575755	1.0634e-06
2	1	0	1	1	18.0221	-0.0455681	-0.0463324	0.0214261	2	-0.000575198	9.92723e-07
2	1	0	1	1	18.0521	-0.0425692	-0.0433222	0.0210182	2	-0.000574553	9.10557e-07
2	1	0	1	1	18.0821	-0.0395703	-0.0403301	0.0206834	2	-0.000573919	8.34162e-07
2	1	0	1	1	18.1121	-0.0365713	-0.0373199	0.0203397	2	-0.000573296	7.59078e-07
2	1	0	1	1	18.1421	-0.0335724	-0.0343202	0.0199847	2	-0.000572683	6.85878e-07
2	1	0	1	1	18.1721	-0.0305735	-0.031327	0.0196174	2	-0.00057208	6.14554e-07
2	1	0	1	1	18.2021	-0.0275745	-0.0283287	0.019334	2	-0.000571487	5.47709e-07
2	1	0	1	1	18.2321	-0.0245756	-0.0253402	0.0190645	2	-0.000570903	4.83098e-07
2	1	0	1	1	18.2621	-0.0215767	-0.0223358	0.0187669	2	-0.000570327	4.19173e-07
2	1	0	1	1	18.2921	-0.0185778	-0.0193242	0.0185233	2	-0.00056976	3.57947e-07
2	1	0	1	1	18.3221	-0.0155788	-0.0163447	0.0182775	2	-0.0005692	2.98741e-07
2	1	0	1	1	18.3521	-0.0125799	-0.0133496	0.0180222	2	-0.000568647	2.40589e-07
2	1	0	1	1	18.3821	-0.00958097	-0.0103522	0.0178125	2	-0.000568101	1.84399e-07
2	1	0	1	1	18.4121	-0.00658204	-0.007352	0.0176177	2	-0.000567562	1.29525e-07
2	1	0	1	1	18.4421	-0.00358311	-0.00434229	0.0174054	2	-0.000567028	7.55792e-08
2	1	0	1	1	18.4721	-0.000584183	-0.00135079	0.0172214	2	-0.0005665	2.32626e-08
2	0	0	0	1	18.4935	-0.00158383	-0.0024102	0.0141355	2	-0.000566172	3.40695e-08
2	0	0	0	1	18.5235	-0.00458275	-0.00541547	0.0126118	2	-0.000565782	6.82986e-08
2	0	0	0	1	18.5535	-0.00758168	-0.00839828	0.0115189	2	-0.000565429	9.67387e-08
2	0	0	0	1	18.5835	-0.0105806	-0.0114076	0.0106819	2	-0.000565106	1.21855e-07
2	0	0	0	1	18.6135	-0.0135795	-0.0144148	0.00988988	2	-0.000564806	1.4256e-07
2	0	0	0	1	18.6435	-0.0165785	-0.0174111	0.00924066	2	-0.000564528	1.6089e-07
2	0	0	0	1	18.6735	-0.0195774	-0.0204003	0.0086364	2	-0.000564268	1.76185e-07
2	0	0	0	1	18.7035	-0.0225763	-0.0233948	0.00811889	2	-0.000564025	1.89939e-07
2	0	0	0	1	18.7335	-0.0255753	-0.0263945	0.00759789	2	-0.000563798	2.00543e-07
2	0	0	0	1	18.7635	-0.0285742	-0.029386	0.00717699	2	-0.000563584	2.10903e-07
2	0	0	0	1	18.7935	-0.0315731	-0.0323733	0.00674946	2	-0.000563385	2.18502e-07
2	0	0	0	1	18.8235	-0.034572	-0.0353883	0.00635426	2	-0.000563197	2.24866e-07
2	0	0	0	1	18.8535	-0.037571	-0.0383769	0.00597182	2	-0.000563022	2.2918e-07
2	0	0	0	1	18.8835	-0.0405699	-0.041415	0.00557895	2	-0.000562857	2.31052e-07
2	0	0	0	1	18.9135	-0.0435688	-0.0443929	0.0052543	2	-0.000562703	2.33254e-07
2	0	0	0	1	18.9435	-0.0465677	-0.0473721	0.00491578	2	-0.000562558	2.32871e-07
2	0	0	1	1	18.9733	-0.0495667	-0.0504	0.0046073	2	-0.000562425	2.32208e-07
2	0	0	1	1	19.0333	-0.0555645	-0.0563818	0.00376193	2	-0.000562162	2.12104e-07
2	0	0	1	1	19.0633	-0.0585635	-0.0593758	0.00349559	2	-0.000562053	2.07553e-07
2	0	0	1	1	19.0933	-0.0615624	-0.0623679	0.00322684	2	-0.000561953	2.01251e-07
2	0	0	1	1	19.1233	-0.0645613	-0.0653838	0.00297355	2	-0.00056186	1.94422e-07
2	0	0	1	1	19.1533	-0.0675603	-0.0683639	0.00272711	2	-0.000561775	1.86436e-07
2	0	0	1	1	19.1833	-0.0705592	-0.0713702	0.00248803	2	-0.000561697	1.77571e-07
2	0	0	1	1	19.2133	-0.0735581	-0.0743924	0.00223823	2	-0.000561626	1.66508e-07
2	0	0	1	1	19.2433	-0.076557	-0.0773748	0.00202791	2	-0.000561562	1.56909e-07
2	0	0	1	1	19.2733	-0.079556	-0.0803771	0.00180707	2	-0.000561505	1.45247e-07
2	0	0	1	1	19.3033	-0.0825549	-0.0833779	0.00158654	2	-0.000561454	1.32282e-07
2	0	0	1	1	19.3333	-0.0855538	-0.0863696	0.001381	2	-0.00056141	1.19277e-07
2	0	0	1	1	19.3633	-0.0885527	-0.0893777	0.00114453	2	-0.000561373	1.02295e-07
2	0	0	1	1	19.3933	-0.0915517	-0.0923817	0.000936868	2	-0.000561342	8.65494e-08
2	0	0	1	1	19.4233	-0.0945506	-0.0953901	0.000741471	2	-0.000561317	7.0729e-08
2	0	0	1	1	19.4533	-0.0975495	-0.098377	0.000513862	2	-0.000561298	5.05521e-08
2	0	0	1	1	19.4833	-0.100548	-0.101378	0.000326544	2	-0.000561285	3.31044e-08
2	0	0	1	1	19.5133	-0.103547	-0.104377	0.000119569	2	-0.000561279	1.24803e-08
2	0	0	0	1	19.5431	-0.106546	-0.107371	-6.93898e-05	2	-0.000561279	7.45046e-09
2	0	0	0	1	19.5731	-0.109545	-0.11038	-0.000270184	2	-0.000561284	2.98229e-08
2	0	0	0	1	19.6031	-0.112544	-0.113373	-0.000476687	2	-0.000561296	5.40433e-08
2	0	0	0	1	19.6331	-0.115543	-0.116369	-0.00066953	2	-0.000561313	7.79122e-08
2	0	0	0	1	19.6631	-0.118542	-0.119383	-0.00087587	2	-0.000561337	1.04564e-07
2	0	0	0	1	19.6931	-0.121541	-0.122386	-0.00106699	2	-0.000561366	1.30585e-07
2	0	0	0	1	19.7231	-0.12454	-0.125369	-0.0012755	2	-0.000561402	1.59908e-07
2	0	0	0	1	19.7531	-0.127539	-0.128371	-0.00149018	2	-0.000561444	1.91296e-07
2	0	0	0	1	19.7831	-0.130538	-0.131379	-0.00169327	2	-0.000561491	2.22459e-07
2	0	0	0	1	19.8131	-0.133537	-0.134374	-0.0019034	2	-0.000561545	2.55767e-07
2	0	0	0	1	19.8431	-0.136536	-0.137378	-0.00211509	2	-0.000561606	2.90566e-07
2	0	0	0	1	19.8731	-0.139535	-0.140368	-0.00233075	2	-0.000561673	3.27163e-07
2	0	0	0	1	19.9031	-0.142533	-0.143376	-0.00255642	2	-0.000561746	3.66529e-07
2	0	0	0	1	19.9331	-0.145532	-0.146371	-0.00275836	2	-0.000561826	4.03744e-07
2	0	0	0	1	19.9631	-0.148531	-0.149363	-0.00298429	2	-0.000561912	4.45741e-07
2	0	0	0	1	19.9931	-0.15153	-0.152372	-0.00320402	2	-0.000562005	4.88202e-07
2	0	0	0	1	20.0231	-0.154529	-0.15538	-0.00343097	2	-0.000562105	5.33104e-07
2	0	0	0	1	20.0531	-0.157528	-0.158388	-0.00367034	2	-0.000562212	5.81337e-07
2	0	0	0	1	20.083	-0.160529	-0.161365	-0.00394573	2	-0.000562326	6.36702e-07
2	0	0	1	1	20.1129	-0.163526	-0.164375	-0.00415441	2	-0.000562447	6.82879e-07
2	0	0	1	1	20.1429	-0.166525	-0.167358	-0.00438825	2	-0.000562576	7.34407e-07
2	0	0	1	1	20.1729	-0.169524	-0.170376	-0.00465234	2	-0.000562712	7.92649e-07
2	0	0	1	1	20.2029	-0.172523	-0.17336	-0.00490971	2	-0.000562856	8.51145e-07
2	0	0	1	1	20.2329	-0.175522	-0.176379	-0.00517499	2	-0.000563007	9.12758e-07
2	0	0	1	1	20.2629	-0.178521	-0.179366	-0.00543264	2	-0.000563167	9.7443e-07
2	0	0	1	1	20.2929	-0.18152	-0.182372	-0.00569819	2	-0.000563334	1.03919e-06
2	0	0	1	1	20.3229	-0.184518	-0.185364	-0.00595521	2	-0.00056351	1.10388e-06
2	0	0	1	1	20.3529	-0.187517	-0.188384	-0.00624549	2	-0.000563693	1.17655e-06
2	0	0	1	1	20.3829	-0.190516	-0.191369	-0.00652511	2	-0.000563885	1.24871e-06
2	0	0	1	1	20.4129	-0.193515	-0.194381	-0.00681747	2	-0.000564085	1.32519e-06
2	0	0	1	1	20.4429	-0.196514	-0.197386	-0.00709686	2	-0.000564294	1.40082e-06
2	0	0	1	1	20.4729	-0.199513	-0.20038	-0.00736478	2	-0.000564511	1.47576e-06
2	0	0	1	1	20.5029	-0.202512	-0.203366	-0.00764495	2	-0.000564736	1.55472e-06
2	0	0	1	1	20.5329	-0.205511	-0.20637	-0.0079178	2	-0.00056497	1.63399e-06
2	0	0	1	1	20.5629	-0.20851	-0.209377	-0.00821231	2	-0.000565212	1.71947e-06
2	0	0	1	1	20.5929	-0.211509	-0.212381	-0.00848572	2	-0.000565463	1.80221e-06
2	0	0	1	1	20.6229	-0.214508	-0.215387	-0.00875649	2	-0.000565722	1.88603e-06
2	0	0	0	1	20.6527	-0.217507	-0.218377	-0.00903625	2	-0.000565988	1.97331e-06
2	0	0	0	1	20.6827	-0.220506	-0.22139	-0.00931263	2	-0.000566263	2.06172e-06
2	0	0	0	1	20.7127	-0.223505	-0.224371	-0.00957849	2	-0.000566547	2.14913e-06
2	0	0	0	1	20.7427	-0.226503	-0.227403	-0.00984343	2	-0.000566838	2.23842e-06
2	0	0	0	1	20.7727	-0.229502	-0.23038	-0.0100961	2	-0.000567137	2.32594e-06
2	0	0	1	1	20.8337	-0.2356	-0.236452	-0.0103288	2	-0.000567766	2.44226e-06
2	0	0	1	1	20.8637	-0.238599	-0.239445	-0.0105776	2	-0.000568087	2.53275e-06
2	0	0	1	1	20.8937	-0.241598	-0.242467	-0.0108203	2	-0.000568416	2.62356e-06
2	0	0	1	1	20.9237	-0.244597	-0.245451	-0.0110074	2	-0.000568752	2.70178e-06
2	0	0	1	1	20.9537	-0.247596	-0.248451	-0.0112797	2	-0.000569094	2.80245e-06
2	0	0	1	1	20.9837	-0.250595	-0.251452	-0.0114935	2	-0.000569444	2.89007e-06
2	0	0	1	1	21.0137	-0.253594	-0.254442	-0.01168	2	-0.0005698	2.97188e-06
2	0	0	1	1	21.0437	-0.256593	-0.257435	-0.0119644	2	-0.000570163	3.08005e-06
2	0	0	1	1	21.0737	-0.259592	-0.260453	-0.0121381	2	-0.000570533	3.16141e-06
2	0	0	1	1	21.1037	-0.262591	-0.263428	-0.0123244	2	-0.000570909	3.2466e-06
2	0	0	1	1	21.1337	-0.26559	-0.266441	-0.0125393	2	-0.000571291	3.34099e-06
2	0	0	1	1	21.1637	-0.268588	-0.269455	-0.012775	2	-0.00057168	3.44228e-06
2	0	0	1	1	21.1937	-0.271587	-0.272452	-0.0129855	2	-0.000572075	3.53794e-06
2	0	0	0	1	21.2235	-0.274586	-0.275446	-0.013228	2	-0.000572474	3.64361e-06
2	0	0	0	1	21.2535	-0.277585	-0.278451	-0.0134085	2	-0.000572882	3.73362e-06
2	0	0	0	1	21.2835	-0.280584	-0.281436	-0.0135796	2	-0.000573296	3.82178e-06
2	0	0	0	1	21.3135	-0.283583	-0.284434	-0.0137978	2	-0.000573715	3.92455e-06
2	0	0	0	1	21.3435	-0.286582	-0.287427	-0.0140039	2	-0.000574141	4.0251e-06
2	0	0	0	1	21.3735	-0.289581	-0.290414	-0.0142167	2	-0.000574572	4.12873e-06
2	0	0	0	1	21.4035	-0.29258	-0.293414	-0.0144066	2	-0.00057501	4.22711e-06
2	0	0	0	1	21.4335	-0.295579	-0.296426	-0.0146128	2	-0.000575453	4.33161e-06
2	0	0	0	1	21.4635	-0.298578	-0.299423	-0.014768	2	-0.000575903	4.42188e-06
2	0	0	0	1	21.4935	-0.301577	-0.302432	-0.0150056	2	-0.000576358	4.53819e-06
2	0	0	0	1	21.5235	-0.304575	-0.305421	-0.0152209	2	-0.00057682	4.64878e-06
2	0	0	0	1	21.5535	-0.307574	-0.308439	-0.0154225	2	-0.000577288	4.75691e-06
2	0	0	0	1	21.5835	-0.310573	-0.311422	-0.0156207	2	-0.000577761	4.86461e-06
2	0	0	0	1	21.6135	-0.313572	-0.314432	-0.0158054	2	-0.000578241	4.96971e-06
2	0	0	0	1	21.6435	-0.316571	-0.317433	-0.0160272	2	-0.000578726	5.08757e-06
2	0	0	0	1	21.6735	-0.31957	-0.320441	-0.016209	2	-0.000579218	5.19401e-06
2	0	0	0	1	21.7035	-0.322569	-0.323439	-0.0164539	2	-0.000579716	5.32184e-06
2	0	0	0	1	21.7335	-0.325568	-0.326415	-0.0166089	2	-0.00058022	5.4214e-06
2	0	0	0	1	21.7634	-0.328574	-0.329446	-0.016896	2	-0.000580728	5.56631e-06
2	0	0	1	1	21.7933	-0.331566	-0.332409	-0.0170302	2	-0.000581242	5.66099e-06
2	0	0	1	1	21.8233	-0.334565	-0.335415	-0.0172442	2	-0.000581765	5.78397e-06
2	0	0	1	1	21.8533	-0.337564	-0.338404	-0.017437	2	-0.000582293	5.90075e-06
2	0	0	1	1	21.8833	-0.340563	-0.341404	-0.0176319	2	-0.000582827	6.01958e-06
2	0	0	1	1	21.9133	-0.343562	-0.344395	-0.0178725	2	-0.000583368	6.15522e-06
2	0	0	1	1	21.9433	-0.346561	-0.347417	-0.0180591	2	-0.000583915	6.27402e-06
2	0	0	1	1	21.9733	-0.349559	-0.350423	-0.0182399	2	-0.000584468	6.39166e-06
2	0	0	1	1	22.0033	-0.352558	-0.353421	-0.0184754	2	-0.000585027	6.5296e-06
2	0	0	1	1	22.0333	-0.355557	-0.356417	-0.0186823	2	-0.000585593	6.65868e-06
2	0	0	1	1	22.0633	-0.358556	-0.359411	-0.0189003	2	-0.000586164	6.79298e-06
2	0	0	1	1	22.0933	-0.361555	-0.362421	-0.0190524	2	-0.000586741	6.90499e-06
2	0	0	1	1	22.1233	-0.364554	-0.3654	-0.0192906	2	-0.000587324	7.0488e-06
2	0	0	1	1	22.1533	-0.367553	-0.368401	-0.0194679	2	-0.000587913	7.17202e-06
2	0	0	1	1	22.1833	-0.370552	-0.371422	-0.0196485	2	-0.000588509	7.29788e-06
2	0	0	1	1	22.2133	-0.373551	-0.374406	-0.019851	2	-0.000589109	7.43236e-06
2	0	0	1	1	22.2433	-0.37655	-0.3774	-0.0200285	2	-0.000589716	7.55876e-06
2	0	0	1	1	22.2733	-0.379549	-0.380411	-0.0202235	2	-0.000590327	7.69324e-06
2	0	0	1	1	22.3033	-0.382548	-0.383403	-0.0204125	2	-0.000590945	7.8262e-06
2	0	0	0	1	22.3331	-0.385547	-0.386399	-0.0205677	2	-0.000591564	7.94735e-06
2	0	0	0	1	22.3631	-0.388546	-0.389392	-0.0207371	2	-0.000592193	8.07486e-06
2	0	0	0	1	22.3931	-0.391544	-0.392409	-0.0209236	2	-0.000592826	8.21061e-06
2	0	0	0	1	22.4231	-0.394543	-0.39539	-0.0210963	2	-0.000593465	8.34127e-06
2	0	0	0	1	22.4531	-0.397542	-0.398399	-0.0212449	2	-0.000594109	8.46394e-06
2	0	0	0	1	22.4831	-0.400541	-0.401385	-0.0214077	2	-0.000594759	8.59275e-06
2	0	0	0	1	22.5131	-0.40354	-0.404409	-0.0216105	2	-0.000595413	8.7395e-06
2	0	0	0	1	22.5431	-0.406539	-0.407391	-0.0217562	2	-0.000596072	8.86329e-06
2	0	0	0	1	22.5731	-0.409538	-0.410403	-0.0218943	2	-0.000596736	8.98549e-06
2	0	0	0	1	22.6031	-0.412537	-0.413392	-0.0220899	2	-0.000597405	9.13176e-06
2	0	0	0	1	22.6331	-0.415536	-0.416409	-0.0222826	2	-0.000598078	9.27866e-06
2	0	0	0	1	22.6631	-0.418535	-0.419398	-0.0224023	2	-0.000598756	9.39549e-06
2	0	0	0	1	22.6931	-0.421534	-0.422409	-0.0225535	2	-0.000599439	9.52679e-06
2	0	0	0	1	22.7231	-0.424533	-0.425394	-0.022471	2	-0.000600125	9.55905e-06
2	0	0	0	1	22.7531	-0.427532	-0.4284	-0.0228554	2	-0.000600817	9.79127e-06
2	0	0	0	1	22.7831	-0.430531	-0.431403	-0.0230553	2	-0.000601513	9.94611e-06
2	0	0	0	1	22.8131	-0.433529	-0.434395	-0.0231688	2	-0.000602214	1.00644e-05
2	0	0	0	1	22.8431	-0.436528	-0.437395	-0.0232753	2	-0.000602919	1.01805e-05
2	0	0	0	1	22.8731	-0.439527	-0.440404	-0.023412	2	-0.000603628	1.03107e-05
2	0	0	1	1	22.9029	-0.442526	-0.443392	-0.0235602	2	-0.000604336	1.04464e-05
2	0	0	1	1	22.9329	-0.445525	-0.446381	-0.023691	2	-0.000605054	1.05752e-05
2	0	0	1	1	22.9629	-0.448524	-0.449378	-0.0238382	2	-0.000605775	1.07124e-05
2	0	0	1	1	22.9929	-0.451523	-0.45239	-0.0240125	2	-0.000606501	1.0863e-05
2	0	0	1	1	23.0229	-0.454522	-0.455384	-0.0241477	2	-0.000607231	1.09965e-05
2	0	0	1	1	23.0529	-0.457521	-0.458376	-0.0242772	2	-0.000607965	1.11281e-05
2	0	0	1	1	23.0829	-0.46052	-0.46136	-0.0243674	2	-0.000608703	1.12422e-05
2	0	0	1	1	23.1129	-0.463519	-0.464387	-0.0245244	2	-0.000609445	1.13888e-05
2	0	0	1	1	23.1429	-0.466518	-0.467381	-0.0246832	2	-0.000610191	1.15365e-05
2	0	0	1	1	23.1729	-0.469517	-0.470374	-0.024804	2	-0.000610941	1.16671e-05
2	0	0	1	1	23.2029	-0.472516	-0.473375	-0.0249394	2	-0.000611695	1.18057e-05
2	0	0	1	1	23.2329	-0.475514	-0.476376	-0.0250649	2	-0.000612453	1.19403e-05
2	0	0	1	1	23.2629	-0.478513	-0.479348	-0.0251746	2	-0.000613215	1.20674e-05
2	0	0	1	1	23.2929	-0.481512	-0.482371	-0.0253446	2	-0.000613982	1.22255e-05
2	0	0	1	1	23.3229	-0.484511	-0.485374	-0.0254689	2	-0.000614752	1.2362e-05
2	0	0	1	1	23.3529	-0.48751	-0.488353	-0.0255861	2	-0.000615526	1.24951e-05
2	0	0	1	1	23.3829	-0.490509	-0.491367	-0.0257236	2	-0.000616305	1.26397e-05
2	0	0	1	1	23.4129	-0.493508	-0.494368	-0.025871	2	-0.000617087	1.27898e-05
2	0	0	1	1	23.4428	-0.496514	-0.497374	-0.0260453	2	-0.000617872	1.29542e-05
2	0	0	0	1	23.4727	-0.499506	-0.500353	-0.0261617	2	-0.00061866	1.30901e-05
2	0	0	0	1	23.5027	-0.502505	-0.503365	-0.0262763	2	-0.000619455	1.32266e-05
2	0	0	0	1	23.5327	-0.505504	-0.506358	-0.0264294	2	-0.000620254	1.33828e-05
2	0	0	0	1	23.5627	-0.508503	-0.509354	-0.0265568	2	-0.000621057	1.35268e-05
2	0	0	0	1	23.5927	-0.511502	-0.512365	-0.0267118	2	-0.000621865	1.36862e-05
2	0	0	0	1	23.6227	-0.514501	-0.51536	-0.0268576	2	-0.000622677	1.38413e-05
2	0	0	0	1	23.6527	-0.5175	-0.518373	-0.0269924	2	-0.000623492	1.39921e-05
2	0	0	0	1	23.6827	-0.520498	-0.521367	-0.0271727	2	-0.000624312	1.41669e-05
2	0	0	0	1	23.7127	-0.523497	-0.524365	-0.0272854	2	-0.000625137	1.43075e-05
2	0	0	0	1	23.7427	-0.526496	-0.527368	-0.0274373	2	-0.000625966	1.44695e-05
2	0	0	0	1	23.7727	-0.529495	-0.530364	-0.0275432	2	-0.000626799	1.46079e-05
2	0	0	0	1	23.8027	-0.532494	-0.533366	-0.0277283	2	-0.000627636	1.47894e-05
2	0	0	0	1	23.8327	-0.535493	-0.536356	-0.0278677	2	-0.000628479	1.4947e-05
2	0	0	0	1	23.8627	-0.538492	-0.539343	-0.0280042	2	-0.000629325	1.51039e-05
2	0	0	0	1	23.8927	-0.541491	-0.542355	-0.0281836	2	-0.000630176	1.52855e-05
2	0	0	0	1	23.9227	-0.54449	-0.545346	-0.0283094	2	-0.000631032	1.54384e-05
2	0	0	0	1	23.9527	-0.547489	-0.548346	-0.0285435	2	-0.000631892	1.56517e-05
2	0	0	0	1	23.9827	-0.550488	-0.55136	-0.0286338	2	-0.000632758	1.57875e-05
2	0	0	1	1	24.0125	-0.553487	-0.554343	-0.0288596	2	-0.000633622	1.59981e-05
2	0	0	1	1	24.0425	-0.556486	-0.557343	-0.0289855	2	-0.000634497	1.61549e-05
2	0	0	1	1	24.0725	-0.559485	-0.560352	-0.0291437	2	-0.000635377	1.63307e-05
2	0	0	1	1	24.1025	-0.562483	-0.563353	-0.0293422	2	-0.000636262	1.653e-05
2	0	0	1	1	24.1325	-0.565482	-0.566348	-0.029476	2	-0.000637153	1.66937e-05
2	0	0	1	1	24.1625	-0.568481	-0.569328	-0.0296689	2	-0.000638048	1.68914e-05
2	0	0	1	1	24.1925	-0.57148	-0.572333	-0.0298374	2	-0.000638949	1.70769e-05
2	0	0	1	1	24.2225	-0.574479	-0.575345	-0.0300474	2	-0.000639855	1.72876e-05
2	0	0	1	1	24.2525	-0.577478	-0.578328	-0.0302096	2	-0.000640768	1.7471e-05
2	0	0	1	1	24.2825	-0.580477	-0.581345	-0.0303903	2	-0.000641685	1.76673e-05
2	0	0	1	1	24.3125	-0.583476	-0.584341	-0.0306069	2	-0.000642609	1.78849e-05
2	0	0	1	1	24.3425	-0.586475	-0.587343	-0.0308233	2	-0.000643539	1.81039e-05
2	0	0	1	1	24.3725	-0.589474	-0.590333	-0.0309816	2	-0.000644474	1.82894e-05
2	0	0	1	1	24.4025	-0.592473	-0.593338	-0.0312417	2	-0.000645416	1.85369e-05
2	0	0	1	1	24.4325	-0.595472	-0.596309	-0.0314482	2	-0.000646364	1.87529e-05
2	0	0	1	1	24.4625	-0.598471	-0.599328	-0.0317053	2	-0.000647319	1.90018e-05
2	0	0	1	1	24.4925	-0.601469	-0.602337	-0.0319041	2	-0.000648281	1.9217e-05
2	0	0	1	1	24.5225	-0.604468	-0.605341	-0.0321533	2	-0.00064925	1.94637e-05
2	0	0	1	1	24.5525	-0.607467	-0.608319	-0.0323754	2	-0.000650226	1.96945e-05
2	0	0	0	1	24.5823	-0.610466	-0.61133	-0.0326691	2	-0.000651204	1.99716e-05
2	0	0	0	1	24.6123	-0.613465	-0.61434	-0.0328841	2	-0.000652195	2.0202e-05
2	0	0	0	1	24.6423	-0.616464	-0.617345	-0.0331875	2	-0.000653194	2.04881e-05
2	0	0	0	1	24.6723	-0.619463	-0.620327	-0.0334222	2	-0.000654202	2.07327e-05
2	0	0	0	1	24.7023	-0.622462	-0.623336	-0.0337292	2	-0.000655217	2.10246e-05
2	0	0	0	1	24.7323	-0.625461	-0.626351	-0.0340282	2	-0.000656241	2.13136e-05
2	0	0	0	1	24.7623	-0.62846	-0.629334	-0.034369	2	-0.000657275	2.16296e-05
2	0	0	0	1	24.7923	-0.631459	-0.632329	-0.0346541	2	-0.000658317	2.19128e-05
2	0	0	0	1	24.8223	-0.634458	-0.635328	-0.0349427	2	-0.000659369	2.22001e-05
2	0	0	0	1	24.8523	-0.637457	-0.638321	-0.0352953	2	-0.000660431	2.25297e-05
2	0	0	0	1	24.8823	-0.640456	-0.641313	-0.0356761	2	-0.000661503	2.28796e-05
2	0	0	0	1	24.9123	-0.643454	-0.644336	-0.0359908	2	-0.000662586	2.31902e-05
2	0	0	0	1	24.9423	-0.646453	-0.647315	-0.0363988	2	-0.000663679	2.35615e-05
2	0	0	0	1	24.9723	-0.649452	-0.650293	-0.0367411	2	-0.000664784	2.38925e-05
2	0	0	0	1	25.0023	-0.652451	-0.65333	-0.0371772	2	-0.000665901	2.4289e-05
2	0	0	0	1	25.0323	-0.65545	-0.656327	-0.0375573	2	-0.00066703	2.46499e-05
2	0	0	0	1	25.0623	-0.658449	-0.659324	-0.0380122	2	-0.000668171	2.50624e-05
2	0	0	0	1	25.0923	-0.661448	-0.662328	-0.0384376	2	-0.000669326	2.54583e-05
2	0	0	0	1	25.1222	-0.664456	-0.665329	-0.0389216	2	-0.00067049	2.58957e-05
2	0	0	1	1	25.1521	-0.667446	-0.668325	-0.0394367	2	-0.000671669	2.63565e-05
2	0	0	1	1	25.1821	-0.670445	-0.671321	-0.0398976	2	-0.000672866	2.67841e-05
2	0	0	1	1	25.2121	-0.673444	-0.674314	-0.0404017	2	-0.000674078	2.72434e-05
2	0	0	1	1	25.2421	-0.676443	-0.677324	-0.0409465	2	-0.000675305	2.7734e-05
2	0	0	1	1	25.2721	-0.679442	-0.680308	-0.0414642	2	-0.000676549	2.82084e-05
2	0	0	1	1	25.3021	-0.682441	-0.683309	-0.0420231	2	-0.00067781	2.87148e-05
2	0	0	1	1	25.3321	-0.685439	-0.686291	-0.0425809	2	-0.000679088	2.92229e-05
2	0	0	1	1	25.3621	-0.688438	-0.6893	-0.0432432	2	-0.000680385	2.98075e-05
2	0	0	1	1	25.3921	-0.691437	-0.692309	-0.0439211	2	-0.0006817	3.0407e-05
2	0	0	1	1	25.4221	-0.694436	-0.695311	-0.0446066	2	-0.000683035	3.10154e-05
2	0	0	1	1	25.4521	-0.697435	-0.698304	-0.0452529	2	-0.00068439	3.16003e-05
2	0	0	1	1	25.4821	-0.700434	-0.7013	-0.0459597	2	-0.000685767	3.22315e-05
2	0	0	1	1	25.5121	-0.703433	-0.704312	-0.0467418	2	-0.000687166	3.29208e-05
2	0	0	1	1	25.5421	-0.706432	-0.70729	-0.0475134	2	-0.000688587	3.36058e-05
2	0	0	1	1	25.5721	-0.709431	-0.71029	-0.0483149	2	-0.000690033	3.43176e-05
2	0	0	1	1	25.6021	-0.71243	-0.713304	-0.0491889	2	-0.000691504	3.50866e-05
2	0	0	1	1	25.6321	-0.715429	-0.716317	-0.0500547	2	-0.000693	3.5855e-05
2	0	0	1	1	25.6621	-0.718428	-0.719312	-0.0510126	2	-0.000694524	3.6694e-05
2	0	0	0	1	25.6919	-0.721427	-0.722297	-0.0519514	2	-0.000696066	3.75244e-05
2	0	0	0	1	25.7219	-0.724426	-0.725299	-0.0529565	2	-0.000697647	3.84093e-05
2	0	0	0	1	25.7519	-0.727424	-0.728298	-0.0539861	2	-0.000699259	3.9318e-05
2	0	0	0	1	25.7819	-0.730423	-0.731304	-0.0551035	2	-0.000700903	4.02974e-05
2	0	0	0	1	25.8119	-0.733422	-0.734314	-0.056172	2	-0.000702579	4.12479e-05
2	0	0	0	1	25.8419	-0.736421	-0.737304	-0.057315	2	-0.000704289	4.22586e-05
2	0	0	0	1	25.8719	-0.73942	-0.740319	-0.0585605	2	-0.000706035	4.33535e-05
2	0	0	0	1	25.9019	-0.742419	-0.743287	-0.0597513	2	-0.000707817	4.44124e-05
2	0	0	0	1	25.9319	-0.745418	-0.746299	-0.0610862	2	-0.000709637	4.55885e-05
2	0	0	0	1	25.9619	-0.748417	-0.74929	-0.0623795	2	-0.000711496	4.67403e-05
2	0	0	0	1	25.9919	-0.751416	-0.752294	-0.0637959	2	-0.000713396	4.79933e-05
2	0	0	0	1	26.0219	-0.754415	-0.755274	-0.0652209	2	-0.000715339	4.92597e-05
2	0	0	0	1	26.0519	-0.757414	-0.758291	-0.0666518	2	-0.000717324	5.05415e-05
2	0	0	0	1	26.0819	-0.760413	-0.761297	-0.0681818	2	-0.000719355	5.19066e-05
2	0	0	0	1	26.1119	-0.763412	-0.764301	-0.069786	2	-0.000721432	5.33375e-05
2	0	0	0	1	26.1419	-0.76641	-0.76728	-0.0713629	2	-0.000723557	5.47553e-05
2	0	0	0	1	26.1719	-0.769409	-0.770288	-0.0730435	2	-0.00072573	5.62645e-05
2	0	0	0	1	26.2019	-0.772408	-0.773296	-0.0747419	2	-0.000727955	5.77976e-05
2	0	0	0	1	26.2319	-0.775407	-0.776287	-0.0764798	2	-0.000730231	5.93703e-05
2	0	0	1	1	26.2617	-0.778406	-0.779288	-0.0783198	2	-0.000732547	6.10337e-05
2	0	0	1	1	26.2917	-0.781405	-0.782301	-0.0801633	2	-0.000734932	6.27118e-05
2	0	0	1	1	26.3217	-0.784404	-0.785287	-0.0820855	2	-0.000737375	6.44607e-05
2	0	0	1	1	26.3517	-0.787403	-0.788259	-0.0840109	2	-0.000739875	6.62224e-05
2	0	0	1	1	26.3817	-0.790402	-0.791288	-0.0860664	2	-0.000742435	6.81034e-05
2	0	0	1	1	26.4117	-0.793401	-0.794278	-0.0881673	2	-0.000745057	7.00293e-05
2	0	0	1	1	26.4417	-0.7964	-0.797286	-0.0903019	2	-0.000747741	7.19965e-05
2	0	0	1	1	26.4717	-0.799399	-0.800285	-0.0924289	2	-0.00075049	7.39695e-05
2	0	0	1	1	26.5017	-0.802398	-0.803283	-0.0946868	2	-0.000753306	7.60602e-05
2	0	0	1	1	26.5317	-0.805397	-0.806288	-0.0969862	2	-0.00075619	7.81988e-05
2	0	0	1	1	26.5617	-0.808396	-0.809287	-0.0993977	2	-0.000759144	8.04413e-05
2	0	0	1	1	26.5917	-0.811394	-0.812276	-0.101782	2	-0.00076217	8.26751e-05
2	0	0	0	1	26.6527	-0.817492	-0.818341	-0.10641	2	-0.000768507	8.70798e-05
2	0	0	0	1	26.6827	-0.820491	-0.821348	-0.109081	2	-0.000771757	8.95937e-05
2	0	0	0	1	26.7127	-0.82349	-0.82434	-0.111715	2	-0.000775088	9.20913e-05
2	0	0	0	1	26.7427	-0.826489	-0.827336	-0.11447	2	-0.000778501	9.47048e-05
2	0	0	0	1	26.7727	-0.829488	-0.830328	-0.117346	2	-0.000781998	9.74355e-05
2	0	0	0	1	26.8026	-0.832496	-0.833353	-0.120395	2	-0.00078557	0.000100331
2	0	0	1	1	26.8325	-0.835486	-0.836321	-0.123255	2	-0.000789232	0.000103081
2	0	0	1	1	26.8625	-0.838485	-0.839323	-0.126399	2	-0.000792997	0.00010609
2	0	0	1	1	26.8925	-0.841484	-0.842334	-0.12958	2	-0.000796855	0.00010915
2	0	0	1	1	26.9225	-0.844483	-0.845329	-0.132883	2	-0.00080081	0.00011233
2	0	0	1	1	26.9525	-0.847482	-0.848328	-0.136204	2	-0.000804865	0.000115545
2	0	0	1	1	26.9825	-0.85048	-0.851327	-0.13963	2	-0.000809021	0.000118871
2	0	0	1	1	27.0125	-0.853479	-0.854307	-0.143251	2	-0.000813283	0.00012238
2	0	0	1	1	27.0425	-0.856478	-0.857326	-0.146839	2	-0.000817654	0.000125888
2	0	0	1	1	27.0725	-0.859477	-0.860328	-0.150663	2	-0.000822136	0.00012962
2	0	0	1	1	27.1025	-0.862476	-0.86332	-0.15452	2	-0.000826733	0.0001334
2	0	0	1	1	27.1325	-0.865475	-0.866309	-0.158522	2	-0.000831449	0.000137329
2	0	0	1	1	27.1625	-0.868474	-0.86932	-0.162657	2	-0.000836287	0.000141401
2	0	0	1	1	27.1925	-0.871473	-0.872311	-0.166898	2	-0.00084125	0.000145587
2	0	0	1	1	27.2225	-0.874472	-0.875324	-0.171315	2	-0.000846343	0.000149956
2	0	0	1	1	27.2525	-0.877471	-0.878314	-0.175733	2	-0.00085157	0.000154349
2	0	0	1	1	27.2825	-0.88047	-0.881306	-0.180385	2	-0.000856935	0.000158974
2	0	0	1	1	27.3125	-0.883469	-0.884323	-0.1853	2	-0.000862443	0.000163865
2	0	0	1	1	27.3425	-0.886468	-0.887324	-0.190332	2	-0.000868098	0.000168886
2	0	0	0	1	27.3723	-0.889467	-0.890304	-0.195449	2	-0.000873866	0.000174009
2	0	0	0	1	27.4023	-0.892465	-0.893295	-0.200752	2	-0.00087983	0.000179331
2	0	0	0	1	27.4323	-0.895464	-0.896304	-0.206227	2	-0.000885955	0.000184842
2	0	0	0	1	27.4623	-0.898463	-0.899308	-0.211793	2	-0.000892247	0.000190467
2	1	0	0	0	27.4839	-0.899463	-0.900316	-0.211601	2	-0.000896855	0.000190508
2	1	0	0	0	27.5139	-0.896464	-0.897299	-0.201964	2	-0.000903027	0.000181222
2	1	0	0	0	27.5439	-0.893465	-0.894307	-0.194031	2	-0.000908943	0.000173523
2	1	0	0	0	27.5739	-0.890466	-0.891302	-0.186736	2	-0.000914632	0.000166438
2	1	0	1	0	27.6037	-0.887467	-0.888312	-0.180083	2	-0.000920074	0.00015997
2	1	0	1	0	27.6337	-0.884468	-0.885308	-0.173558	2	-0.000925356	0.000153653
2	1	0	1	0	27.6637	-0.881469	-0.882289	-0.167402	2	-0.000930449	0.000147697
2	1	0	1	0	27.6937	-0.87847	-0.879295	-0.161586	2	-0.000935362	0.000142082
2	1	0	1	0	27.7237	-0.875472	-0.876319	-0.15609	2	-0.000940104	0.000136784
2	1	0	1	0	27.7537	-0.872473	-0.873299	-0.150614	2	-0.000944681	0.000131532
2	1	0	1	0	27.7837	-0.869474	-0.870312	-0.145301	2	-0.000949098	0.000126457
2	1	0	1	0	27.8137	-0.866475	-0.867315	-0.140445	2	-0.000953364	0.00012181
2	1	0	1	0	27.8437	-0.863476	-0.864303	-0.135532	2	-0.000957481	0.000117141
2	1	0	1	0	27.8737	-0.860477	-0.861312	-0.130878	2	-0.000961457	0.000112727
2	1	0	1	0	27.9037	-0.857478	-0.858316	-0.126457	2	-0.000965296	0.00010854
2	1	0	1	0	27.9337	-0.854479	-0.855321	-0.122202	2	-0.000969003	0.000104522
2	1	0	1	0	27.9637	-0.85148	-0.852307	-0.118	2	-0.000972583	0.000100572
2	1	0	1	0	27.9937	-0.848481	-0.849315	-0.113916	2	-0.000976041	9.67504e-05
2	1	0	1	0	28.0237	-0.845482	-0.846302	-0.110079	2	-0.000979379	9.316e-05
2	1	0	1	0	28.0537	-0.842483	-0.843325	-0.1064	2	-0.000982604	8.97298e-05
2	1	0	1	0	28.0837	-0.839484	-0.840312	-0.102621	2	-0.000985717	8.62338e-05
2	1	0	1	0	28.1137	-0.836485	-0.837317	-0.0992698	2	-0.000988724	8.31203e-05
2	1	0	1	0	28.1437	-0.833487	-0.834318	-0.095764	2	-0.000991628	7.98976e-05
2	1	0	0	0	28.1735	-0.830488	-0.83131	-0.0924931	2	-0.000994412	7.68905e-05
2	1	0	0	0	28.2035	-0.827489	-0.828316	-0.0893172	2	-0.000997119	7.39828e-05
2	1	0	0	0	28.2335	-0.82449	-0.82533	-0.0863424	2	-0.000999734	7.1261e-05
2	1	0	0	0	28.2635	-0.821491	-0.822332	-0.0833173	2	-0.00100226	6.85145e-05
2	1	0	0	0	28.2935	-0.818492	-0.819332	-0.0805044	2	-0.0010047	6.59598e-05
2	1	0	0	0	28.3235	-0.815493	-0.816321	-0.0777537	2	-0.00100705	6.3472e-05
2	1	0	0	0	28.3535	-0.812494	-0.813339	-0.0750268	2	-0.00100932	6.10222e-05
2	1	0	0	0	28.3835	-0.809495	-0.810342	-0.0724779	2	-0.00101151	5.87319e-05
2	1	0	0	0	28.4135	-0.806496	-0.807312	-0.0700061	2	-0.00101363	5.65168e-05
2	1	0	0	0	28.4435	-0.803497	-0.804315	-0.0675416	2	-0.00101567	5.43247e-05
2	1	0	0	0	28.4735	-0.800498	-0.801311	-0.0652131	2	-0.00101764	5.2256e-05
2	1	0	0	0	28.5035	-0.797499	-0.798333	-0.0630333	2	-0.00101955	5.03215e-05
2	1	0	0	0	28.5335	-0.7945	-0.795324	-0.0607959	2	-0.00102138	4.83525e-05
2	1	0	0	0	28.5635	-0.791502	-0.792332	-0.058686	2	-0.00102315	4.64988e-05
2	1	0	0	0	28.5935	-0.788503	-0.789349	-0.056671	2	-0.00102486	4.47332e-05
2	1	0	0	0	28.6235	-0.785504	-0.786334	-0.054666	2	-0.00102651	4.29857e-05
2	1	0	0	0	28.6535	-0.782505	-0.783353	-0.0527054	2	-0.0010281	4.12869e-05
2	1	0	0	0	28.6835	-0.779506	-0.780343	-0.0508353	2	-0.00102964	3.96689e-05
2	1	0	0	0	28.7134	-0.776516	-0.777352	-0.0491215	2	-0.00103111	3.81847e-05
2	1	0	0	0	28.7743	-0.770409	-0.771224	-0.0454262	2	-0.00103398	3.50338e-05
2	1	0	0	0	28.8043	-0.76741	-0.768218	-0.0437962	2	-0.00103531	3.3645e-05
2	1	0	0	0	28.8343	-0.764411	-0.765226	-0.0422249	2	-0.0010366	3.23116e-05
2	1	0	0	0	28.8643	-0.761412	-0.762226	-0.040697	2	-0.00103783	3.10203e-05
2	1	0	0	0	28.8943	-0.758413	-0.759229	-0.0392562	2	-0.00103902	2.98044e-05
2	1	0	0	0	28.9243	-0.755414	-0.756228	-0.0378278	2	-0.00104017	2.86065e-05
2	1	0	0	0	28.9543	-0.752416	-0.753223	-0.0364484	2	-0.00104128	2.74538e-05
2	1	0	0	0	28.9843	-0.749417	-0.750235	-0.0351897	2	-0.00104235	2.64005e-05
2	1	0	0	0	29.0143	-0.746418	-0.747233	-0.0339451	2	-0.00104337	2.53649e-05
2	1	0	0	0	29.0443	-0.743419	-0.74424	-0.0326654	2	-0.00104436	2.43109e-05
2	1	0	0	0	29.0743	-0.74042	-0.741238	-0.0315119	2	-0.00104532	2.33578e-05
2	1	0	0	0	29.1043	-0.737421	-0.738249	-0.0303481	2	-0.00104624	2.24045e-05
2	1	0	0	0	29.1343	-0.734422	-0.735228	-0.0292671	2	-0.00104712	2.1518e-05
2	1	0	0	0	29.1643	-0.731423	-0.732238	-0.0282105	2	-0.00104798	2.06568e-05
2	1	0	0	0	29.1943	-0.728424	-0.729239	-0.0271721	2	-0.0010488	1.98149e-05
2	1	0	0	0	29.2243	-0.725425	-0.726235	-0.0261495	2	-0.00104959	1.89907e-05
2	1	0	0	0	29.2543	-0.722426	-0.723239	-0.025232	2	-0.00105036	1.82487e-05
2	1	0	1	0	29.2841	-0.719427	-0.720234	-0.0242597	2	-0.00105108	1.74727e-05
2	1	0	1	0	29.3141	-0.716428	-0.717242	-0.0234093	2	-0.00105179	1.67902e-05
2	1	0	1	0	29.3441	-0.713429	-0.714236	-0.0225455	2	-0.00105247	1.61028e-05
2	1	0	1	0	29.3741	-0.710431	-0.711236	-0.0217117	2	-0.00105313	1.54421e-05
2	1	0	1	0	29.4041	-0.707432	-0.708225	-0.020876	2	-0.00105376	1.47849e-05
2	1	0	1	0	29.4341	-0.704433	-0.705231	-0.0201933	2	-0.00105437	1.42409e-05
2	1	0	1	0	29.4641	-0.701434	-0.702235	-0.0194695	2	-0.00105496	1.36722e-05
2	1	0	1	0	29.4941	-0.698435	-0.699249	-0.0187927	2	-0.00105552	1.31408e-05
2	1	0	1	0	29.5241	-0.695436	-0.696235	-0.0180962	2	-0.00105607	1.25992e-05
2	1	0	1	0	29.5541	-0.692437	-0.693237	-0.017451	2	-0.00105659	1.20977e-05
2	1	0	1	0	29.5841	-0.689438	-0.690232	-0.0168493	2	-0.0010571	1.16299e-05
2	1	0	1	0	29.6141	-0.686439	-0.687245	-0.0161993	2	-0.00105759	1.11329e-05
2	1	0	1	0	29.6441	-0.68344	-0.684236	-0.0156456	2	-0.00105806	1.07053e-05
2	1	0	1	0	29.6741	-0.680441	-0.681241	-0.015126	2	-0.00105851	1.03044e-05
2	1	0	1	0	29.7041	-0.677442	-0.678243	-0.014563	2	-0.00105895	9.87724e-06
2	1	0	1	0	29.7341	-0.674443	-0.675232	-0.014055	2	-0.00105937	9.49041e-06
2	1	0	1	0	29.7641	-0.671444	-0.672237	-0.0135792	2	-0.00105978	9.12847e-06
2	1	0	1	0	29.7941	-0.668446	-0.669244	-0.0131221	2	-0.00106017	8.78186e-06
2	1	0	1	0	29.8241	-0.665447	-0.666246	-0.0126739	2	-0.00106055	8.44397e-06
2	1	0	0	0	29.8539	-0.662448	-0.663258	-0.0122112	2	-0.00106091	8.0992e-06
2	1	0	0	0	29.8839	-0.659449	-0.660253	-0.0118516	2	-0.00106126	7.82507e-06
2	1	0	0	0	29.9139	-0.65645	-0.657253	-0.0114156	2	-0.0010616	7.50294e-06
2	1	0	0	0	29.9439	-0.653451	-0.654246	-0.0110311	2	-0.00106193	7.21704e-06
2	1	0	0	0	29.9739	-0.650452	-0.651262	-0.0106753	2	-0.00106225	6.95244e-06
2	1	0	0	0	30.0039	-0.647453	-0.648249	-0.0103598	2	-0.00106256	6.71572e-06
2	1	0	0	0	30.0339	-0.644454	-0.645256	-0.0100114	2	-0.00106285	6.45994e-06
2	1	0	0	0	30.0639	-0.641455	-0.642265	-0.00967151	2	-0.00106314	6.21168e-06
2	1	0	0	0	30.0939	-0.638456	-0.639254	-0.00938772	2	-0.00106342	6.00113e-06
2	1	0	0	0	30.1239	-0.635457	-0.636249	-0.00905379	2	-0.00106369	5.76046e-06
2	1	0	0	0	30.1539	-0.632458	-0.633254	-0.00875433	2	-0.00106395	5.54371e-06
2	1	0	0	0	30.1839	-0.629459	-0.630263	-0.0085002	2	-0.0010642	5.35736e-06
2	1	0	0	0	30.2139	-0.626461	-0.62727	-0.00824636	2	-0.00106444	5.17269e-06
2	1	0	0	0	30.2439	-0.623462	-0.624262	-0.00795776	2	-0.00106468	4.96773e-06
2	1	0	0	0	30.2739	-0.620463	-0.621266	-0.00775398	2	-0.0010649	4.81729e-06
2	1	0	0	0	30.3039	-0.617464	-0.618256	-0.00750069	2	-0.00106512	4.63734e-06
2	1	0	0	0	30.3339	-0.614465	-0.615249	-0.00723582	2	-0.00106534	4.45183e-06
2	1	0	0	0	30.3639	-0.611466	-0.612259	-0.00707717	2	-0.00106554	4.33306e-06
2	1	0	0	0	30.3938	-0.608472	-0.609242	-0.00679351	2	-0.00106574	4.13889e-06
2	1	0	1	0	30.4237	-0.605468	-0.606253	-0.00664645	2	-0.00106594	4.02943e-06
2	1	0	1	0	30.4537	-0.602469	-0.603253	-0.00641479	2	-0.00106612	3.86974e-06
2	1	0	1	0	30.4837	-0.59947	-0.600242	-0.00621416	2	-0.00106631	3.73e-06
2	1	0	1	0	30.5137	-0.596471	-0.597262	-0.00602898	2	-0.00106648	3.60088e-06
2	1	0	1	0	30.5437	-0.593472	-0.594266	-0.00587782	2	-0.00106665	3.49299e-06
2	1	0	1	0	30.5737	-0.590473	-0.591246	-0.0056831	2	-0.00106682	3.36011e-06
2	1	0	1	0	30.6037	-0.587474	-0.588247	-0.00548937	2	-0.00106698	3.2291e-06
2	1	0	1	0	30.6337	-0.584476	-0.585272	-0.0053079	2	-0.00106713	3.10657e-06
2	1	0	1	0	30.6637	-0.581477	-0.582276	-0.00516746	2	-0.00106728	3.00889e-06
2	1	0	1	0	30.6937	-0.578478	-0.57926	-0.00495247	2	-0.00106743	2.86877e-06
2	1	0	1	0	30.7237	-0.575479	-0.576265	-0.00485685	2	-0.00106757	2.79883e-06
2	1	0	1	0	30.7537	-0.57248	-0.573281	-0.00469467	2	-0.0010677	2.69137e-06
2	1	0	1	0	30.8137	-0.566482	-0.567272	-0.00415219	2	-0.00106797	2.35542e-06
2	1	0	1	0	30.8437	-0.563483	-0.564265	-0.00399506	2	-0.00106809	2.25427e-06
2	1	0	1	0	30.8737	-0.560484	-0.561284	-0.00383495	2	-0.0010682	2.15249e-06
2	1	0	1	0	30.9037	-0.557485	-0.558282	-0.00369748	2	-0.00106832	2.06424e-06
2	1	0	1	0	30.9337	-0.554486	-0.555281	-0.00355166	2	-0.00106843	1.97217e-06
2	1	0	0	0	30.9635	-0.551487	-0.552284	-0.00338673	2	-0.00106853	1.87044e-06
2	1	0	0	0	30.9935	-0.548488	-0.549281	-0.0032652	2	-0.00106863	1.79352e-06
2	1	0	0	0	31.0235	-0.545489	-0.546276	-0.00312795	2	-0.00106872	1.70872e-06
2	1	0	0	0	31.0535	-0.542491	-0.543278	-0.00300272	2	-0.00106882	1.63131e-06
2	1	0	0	0	31.0835	-0.539492	-0.540266	-0.00284455	2	-0.0010689	1.53681e-06
2	1	0	0	0	31.1135	-0.536493	-0.537266	-0.00271804	2	-0.00106899	1.46031e-06
2	1	0	0	0	31.1435	-0.533494	-0.534279	-0.00257883	2	-0.00106907	1.37781e-06
2	1	0	0	0	31.1735	-0.530495	-0.531266	-0.00243358	2	-0.00106914	1.29288e-06
2	1	0	0	0	31.2035	-0.527496	-0.528276	-0.00231834	2	-0.00106921	1.22473e-06
2	1	0	0	0	31.2335	-0.524497	-0.525271	-0.00218394	2	-0.00106928	1.14716e-06
2	1	0	0	0	31.2635	-0.521498	-0.522271	-0.00205345	2	-0.00106934	1.07246e-06
2	1	0	0	0	31.2935	-0.518499	-0.519273	-0.00191381	2	-0.0010694	9.93792e-07
2	1	0	0	0	31.3235	-0.5155	-0.516294	-0.00179119	2	-0.00106946	9.2478e-07
2	1	0	0	0	31.3535	-0.512501	-0.513289	-0.00165531	2	-0.00106951	8.49655e-07
2	1	0	0	0	31.3835	-0.509502	-0.510277	-0.0015057	2	-0.00106955	7.68325e-07
2	1	0	0	0	31.4135	-0.506503	-0.50728	-0.00135877	2	-0.0010696	6.89278e-07
2	1	0	0	0	31.4435	-0.503505	-0.504283	-0.00125703	2	-0.00106964	6.33897e-07
2	1	0	0	0	31.4735	-0.500506	-0.501272	-0.001119	2	-0.00106967	5.60923e-07
2	1	0	0	0	31.5035	-0.497507	-0.498266	-0.000961834	2	-0.0010697	4.79249e-07
2	1	0	1	0	31.5333	-0.494508	-0.495284	-0.000833818	2	-0.00106973	4.12976e-07
2	1	0	1	0	31.5633	-0.491509	-0.49227	-0.000715415	2	-0.00106975	3.52178e-07
2	1	0	1	0	31.5933	-0.48851	-0.489282	-0.000579345	2	-0.00106977	2.83463e-07
2	1	0	1	0	31.6233	-0.485511	-0.486269	-0.000435002	2	-0.00106979	2.11528e-07
2	1	0	1	0	31.6533	-0.482512	-0.483268	-0.00031674	2	-0.0010698	1.5307e-07
2	1	0	1	0	31.6833	-0.479513	-0.480278	-0.000168539	2	-0.0010698	8.09455e-08
2	1	0	1	0	31.7133	-0.476514	-0.477294	-5.05655e-05	2	-0.00106981	2.41346e-08
2	1	0	1	0	31.7433	-0.473515	-0.474276	8.05763e-05	2	-0.00106981	3.82154e-08
2	1	0	1	0	31.7733	-0.470516	-0.471293	0.000220472	2	-0.0010698	1.03907e-07
2	1	0	1	0	31.8033	-0.467517	-0.468291	0.000366875	2	-0.00106979	1.71804e-07
2	1	0	1	0	31.8333	-0.464518	-0.465303	0.00050844	2	-0.00106978	2.36578e-07
2	1	0	1	0	31.8633	-0.461519	-0.462268	0.000641099	2	-0.00106976	2.9636e-07
2	1	0	1	0	31.8933	-0.45852	-0.459291	0.000801523	2	-0.00106974	3.68132e-07
2	1	0	1	0	31.9233	-0.455522	-0.456286	0.000925363	2	-0.00106971	4.2223e-07
2	1	0	1	0	31.9533	-0.452523	-0.453292	0.00106786	2	-0.00106968	4.84052e-07
2	1	0	1	0	31.9833	-0.449524	-0.450295	0.00121004	2	-0.00106965	5.44876e-07
2	1	0	1	0	32.0133	-0.446525	-0.447297	0.00134809	2	-0.00106961	6.02997e-07
2	1	0	1	0	32.0433	-0.443526	-0.444289	0.00150553	2	-0.00106957	6.68889e-07
2	1	0	1	0	32.0732	-0.440532	-0.441293	0.00165085	2	-0.00106952	7.28508e-07
2	1	0	0	0	32.1031	-0.437528	-0.438308	0.00179646	2	-0.00106947	7.87404e-07
2	1	0	0	0	32.1331	-0.434529	-0.435315	0.00193314	2	-0.00106941	8.41523e-07
2	1	0	0	0	32.1631	-0.43153	-0.432299	0.00207664	2	-0.00106935	8.97728e-07
2	1	0	0	0	32.1931	-0.428531	-0.429306	0.00222837	2	-0.00106929	9.56653e-07
2	1	0	0	0	32.2231	-0.425532	-0.426313	0.0023733	2	-0.00106922	1.01177e-06
2	1	0	0	0	32.2531	-0.422533	-0.423294	0.00252138	2	-0.00106914	1.06728e-06
2	1	0	0	0	32.2831	-0.419534	-0.420297	0.00268761	2	-0.00106907	1.12959e-06
2	1	0	0	0	32.3131	-0.416536	-0.417298	0.00282734	2	-0.00106898	1.17984e-06
2	1	0	0	0	32.3431	-0.413537	-0.414305	0.00298872	2	-0.0010689	1.23824e-06
2	1	0	0	0	32.3731	-0.410538	-0.411302	0.00313263	2	-0.0010688	1.28846e-06
2	1	0	0	0	32.4031	-0.407539	-0.408304	0.00330131	2	-0.00106871	1.34794e-06
2	1	0	0	0	32.4331	-0.40454	-0.405284	0.00344906	2	-0.00106861	1.39785e-06
2	1	0	0	0	32.4631	-0.401541	-0.4023	0.00359111	2	-0.0010685	1.4447e-06
2	1	0	0	0	32.4931	-0.398542	-0.399305	0.00375015	2	-0.00106839	1.49745e-06
2	1	0	0	0	32.5231	-0.395543	-0.396299	0.00390273	2	-0.00106828	1.54664e-06
2	1	0	0	0	32.5531	-0.392544	-0.393284	0.00406252	2	-0.00106816	1.59772e-06
2	1	0	0	0	32.5831	-0.389545	-0.39031	0.00420654	2	-0.00106803	1.64185e-06
2	1	0	0	0	32.6131	-0.386546	-0.387312	0.00438879	2	-0.0010679	1.69983e-06
2	1	0	1	0	32.6429	-0.383547	-0.384295	0.00453432	2	-0.00106777	1.74252e-06
2	1	0	1	0	32.6729	-0.380548	-0.381297	0.0046972	2	-0.00106763	1.79103e-06
2	1	0	1	0	32.7029	-0.377549	-0.378283	0.00485098	2	-0.00106749	1.83504e-06
2	1	0	1	0	32.7329	-0.374551	-0.37528	0.00500331	2	-0.00106734	1.87764e-06
2	1	0	1	0	32.7629	-0.371552	-0.372291	0.00517158	2	-0.00106719	1.92533e-06
2	1	0	1	0	32.7929	-0.368553	-0.369294	0.00533462	2	-0.00106703	1.97004e-06
2	1	0	1	0	32.8229	-0.365554	-0.3663	0.00550295	2	-0.00106686	2.01573e-06
2	1	0	1	0	32.8529	-0.362555	-0.363306	0.00563915	2	-0.0010667	2.04873e-06
2	1	0	1	0	32.8829	-0.359556	-0.360313	0.00580866	2	-0.00106653	2.09294e-06
2	1	0	1	0	32.9129	-0.356557	-0.357305	0.00597123	2	-0.00106635	2.13355e-06
2	1	0	1	0	32.9429	-0.353558	-0.354302	0.00615184	2	-0.00106617	2.17961e-06
2	1	0	1	0	32.9729	-0.350559	-0.351306	0.00629192	2	-0.00106598	2.21039e-06
2	1	0	1	0	33.0029	-0.34756	-0.348311	0.00646445	2	-0.00106579	2.25164e-06
2	1	0	1	0	33.0329	-0.344561	-0.345302	0.00663177	2	-0.00106559	2.28996e-06
2	1	0	1	0	33.0629	-0.341562	-0.342303	0.006775	2	-0.00106539	2.3191e-06
2	1	0	1	0	33.0929	-0.338563	-0.33929	0.00695667	2	-0.00106518	2.36033e-06
2	1	0	1	0	33.1229	-0.335564	-0.336298	0.00711661	2	-0.00106497	2.3933e-06
2	1	0	1	0	33.1529	-0.332566	-0.333308	0.00726934	2	-0.00106476	2.42293e-06
2	1	0	1	0	33.1829	-0.329567	-0.330295	0.00744038	2	-0.00106453	2.45752e-06
2	1	0	0	0	33.2127	-0.326568	-0.327302	0.00761221	2	-0.00106431	2.49149e-06
2	1	0	0	0	33.2427	-0.323569	-0.324316	0.00777929	2	-0.00106408	2.52295e-06
2	1	0	0	0	33.2727	-0.32057	-0.321324	0.00794735	2	-0.00106384	2.55367e-06
2	1	0	0	0	33.3027	-0.317571	-0.31831	0.00813355	2	-0.0010636	2.58899e-06
2	1	0	0	0	33.3327	-0.314572	-0.315306	0.00830823	2	-0.00106335	2.61964e-06
2	1	0	0	0	33.3627	-0.311573	-0.312327	0.00847684	2	-0.0010631	2.64755e-06
2	1	0	0	0	33.3927	-0.308574	-0.30933	0.00865973	2	-0.00106284	2.67871e-06
2	1	0	0	0	33.4227	-0.305575	-0.306303	0.00885326	2	-0.00106258	2.71178e-06
2	1	0	0	0	33.4527	-0.302576	-0.303313	0.00903173	2	-0.00106231	2.73944e-06
2	1	0	0	0	33.4827	-0.299577	-0.300293	0.00920229	2	-0.00106204	2.76338e-06
2	1	0	0	0	33.5127	-0.296578	-0.297291	0.00939471	2	-0.00106176	2.79296e-06
2	1	0	0	0	33.5427	-0.293579	-0.294309	0.00958769	2	-0.00106147	2.82175e-06
2	1	0	0	0	33.5727	-0.290581	-0.291321	0.00978904	2	-0.00106118	2.85175e-06
2	1	0	0	0	33.6027	-0.287582	-0.288315	0.00999281	2	-0.00106089	2.88108e-06
2	1	0	0	0	33.6327	-0.284583	-0.285315	0.0101974	2	-0.00106058	2.90949e-06
2	1	0	1	0	33.6937	-0.278485	-0.279254	0.0104116	2	-0.00105995	2.90748e-06
2	1	0	1	0	33.7237	-0.275486	-0.276238	0.0106448	2	-0.00105962	2.9405e-06
2	1	0	1	0	33.7536	-0.272489	-0.273259	0.0108912	2	-0.00105929	2.97611e-06
2	1	0	0	0	33.7835	-0.269488	-0.270265	0.0111154	2	-0.00105896	3.0041e-06
2	1	0	0	0	33.8135	-0.266489	-0.267251	0.0113382	2	-0.00105861	3.03013e-06
2	1	0	0	0	33.8435	-0.26349	-0.264261	0.0115864	2	-0.00105826	3.06184e-06
2	1	0	0	0	33.8735	-0.260491	-0.261255	0.0118716	2	-0.0010579	3.10151e-06
2	1	0	0	0	33.9035	-0.257492	-0.258253	0.0121465	2	-0.00105753	3.13688e-06
2	1	0	0	0	33.9335	-0.254493	-0.255265	0.0123986	2	-0.00105715	3.16491e-06
2	1	0	0	0	33.9635	-0.251495	-0.252256	0.0127043	2	-0.00105677	3.20473e-06
2	1	0	0	0	33.9935	-0.248496	-0.249265	0.012994	2	-0.00105638	3.23895e-06
2	1	0	0	0	34.0235	-0.245497	-0.246266	0.013297	2	-0.00105597	3.27461e-06
2	1	0	0	0	34.0535	-0.242498	-0.243265	0.013607	2	-0.00105556	3.31011e-06
2	1	0	0	0	34.0835	-0.239499	-0.240256	0.0138687	2	-0.00105514	3.33204e-06
2	1	0	0	0	34.1135	-0.2365	-0.237243	0.0142228	2	-0.00105471	3.37425e-06
2	1	0	0	0	34.1435	-0.233501	-0.234281	0.0144979	2	-0.00105427	3.39657e-06
2	1	0	0	0	34.1735	-0.230502	-0.23126	0.0148302	2	-0.00105382	3.42963e-06
2	1	0	0	0	34.2035	-0.227503	-0.22826	0.0151606	2	-0.00105337	3.46055e-06
2	1	0	0	0	34.2335	-0.224504	-0.225266	0.0155334	2	-0.0010529	3.49914e-06
2	1	0	0	0	34.2635	-0.221505	-0.222262	0.015813	2	-0.00105242	3.51463e-06
2	1	0	0	0	34.2935	-0.218506	-0.219266	0.0161611	2	-0.00105193	3.54358e-06
2	1	0	1	0	34.3233	-0.215507	-0.216269	0.0165161	2	-0.00105144	3.57191e-06
2	1	0	1	0	34.3533	-0.212508	-0.21326	0.0168848	2	-0.00105093	3.60085e-06
2	1	0	1	0	34.3833	-0.20951	-0.210274	0.0172218	2	-0.00105041	3.62129e-06
2	1	0	1	0	34.4133	-0.206511	-0.207277	0.0175673	2	-0.00104988	3.6413e-06
2	1	0	1	0	34.4433	-0.203512	-0.20429	0.0178825	2	-0.00104934	3.65321e-06
2	1	0	1	0	34.4733	-0.200513	-0.201272	0.0182635	2	-0.00104879	3.67592e-06
2	1	0	1	0	34.5033	-0.197514	-0.198277	0.0186448	2	-0.00104823	3.69683e-06
2	1	0	1	0	34.5333	-0.194515	-0.195275	0.0189944	2	-0.00104766	3.70913e-06
2	1	0	1	0	34.5633	-0.191516	-0.192277	0.0193396	2	-0.00104707	3.71855e-06
2	1	0	1	0	34.5933	-0.188517	-0.189262	0.0197315	2	-0.00104648	3.73442e-06
2	1	0	1	0	34.6233	-0.185518	-0.186258	0.0200642	2	-0.00104588	3.73711e-06
2	1	0	1	0	34.6533	-0.182519	-0.183271	0.0204669	2	-0.00104526	3.75099e-06
2	1	0	1	0	34.6833	-0.17952	-0.180265	0.0207988	2	-0.00104463	3.74932e-06
2	1	0	1	0	34.7133	-0.176521	-0.177282	0.0211881	2	-0.00104399	3.75627e-06
2	1	0	1	0	34.7433	-0.173522	-0.174276	0.0216242	2	-0.00104334	3.76858e-06
2	1	0	1	0	34.7733	-0.170523	-0.171292	0.0220045	2	-0.00104268	3.7692e-06
2	1	0	1	0	34.8033	-0.167525	-0.168301	0.0223858	2	-0.00104201	3.76756e-06
2	1	0	1	0	34.8333	-0.164526	-0.165292	0.022753	2	-0.00104132	3.76089e-06
2	1	0	1	0	34.8633	-0.161527	-0.162284	0.0231751	2	-0.00104062	3.76096e-06
2	1	0	0	0	34.8931	-0.158528	-0.159289	0.0235869	2	-0.00103992	3.75714e-06
2	1	0	0	0	34.9231	-0.155529	-0.156291	0.0239662	2	-0.0010392	3.74569e-06
2	1	0	0	0	34.9531	-0.15253	-0.153303	0.0244078	2	-0.00103846	3.74179e-06
2	1	0	0	0	34.9831	-0.149531	-0.15028	0.0248183	2	-0.00103772	3.72968e-06
2	1	0	0	0	35.0131	-0.146532	-0.147293	0.0251912	2	-0.00103696	3.71049e-06
2	1	0	0	0	35.0431	-0.143533	-0.144305	0.0255964	2	-0.00103619	3.69368e-06
2	1	0	0	0	35.0731	-0.140534	-0.141293	0.026009	2	-0.0010354	3.6749e-06
2	1	0	0	0	35.1031	-0.137535	-0.138293	0.0263878	2	-0.00103461	3.64925e-06
2	1	0	0	0	35.1331	-0.134536	-0.135285	0.0267687	2	-0.0010338	3.6214e-06
2	1	0	0	0	35.1631	-0.131537	-0.132296	0.0270994	2	-0.00103299	3.58514e-06
2	1	0	0	0	35.1931	-0.128538	-0.129299	0.0274577	2	-0.00103216	3.55027e-06
2	1	0	0	0	35.2231	-0.12554	-0.126319	0.0277835	2	-0.00103132	3.50958e-06
2	1	0	0	0	35.2531	-0.122541	-0.123313	0.0281115	2	-0.00103048	3.46652e-06
2	1	0	0	0	35.2831	-0.119542	-0.120317	0.0283117	2	-0.00102962	3.40638e-06
2	1	0	0	0	35.3131	-0.116543	-0.11731	0.0285891	2	-0.00102876	3.35379e-06
2	1	0	0	0	35.3431	-0.113544	-0.114317	0.0287559	2	-0.00102789	3.2873e-06
2	1	0	0	0	35.3731	-0.110545	-0.111278	0.02895	2	-0.00102702	3.2215e-06
2	1	0	0	0	35.4031	-0.107546	-0.108295	0.0290656	2	-0.00102614	3.14765e-06
2	1	0	0	0	35.433	-0.104547	-0.105311	0.0291508	2	-0.00102526	3.06988e-06
2	1	0	1	0	35.4629	-0.101548	-0.102303	0.0291599	2	-0.00102438	2.98316e-06
2	1	0	1	0	35.4929	-0.0985492	-0.0992827	0.029135	2	-0.0010235	2.8926e-06
2	1	0	1	0	35.5229	-0.0955502	-0.0962959	0.0290705	2	-0.00102262	2.79937e-06
2	1	0	1	0	35.5529	-0.0925513	-0.093315	0.0289511	2	-0.00102174	2.70158e-06
2	1	0	1	0	35.5829	-0.0895524	-0.0902995	0.0288239	2	-0.00102087	2.60278e-06
2	1	0	1	0	35.6129	-0.0865535	-0.0872908	0.0286332	2	-0.00102	2.49941e-06
2	1	0	1	0	35.6429	-0.0835545	-0.084296	0.0283963	2	-0.00101913	2.39369e-06
2	1	0	1	0	35.6729	-0.0805556	-0.0812969	0.0281485	2	-0.00101828	2.28838e-06
2	1	0	1	0	35.7029	-0.0775567	-0.0783022	0.0278723	2	-0.00101743	2.18246e-06
2	1	0	1	0	35.7329	-0.0745578	-0.0753181	0.027537	2	-0.00101659	2.07403e-06
2	1	0	1	0	35.7629	-0.0715588	-0.0723098	0.0271902	2	-0.00101576	1.96612e-06
2	1	0	1	0	35.7929	-0.0685599	-0.0693069	0.0268047	2	-0.00101494	1.85775e-06
2	1	0	1	0	35.8229	-0.065561	-0.0663065	0.0264467	2	-0.00101414	1.75359e-06
2	1	0	1	0	35.8529	-0.062562	-0.0633222	0.0259973	2	-0.00101334	1.6462e-06
2	1	0	1	0	35.8829	-0.0595631	-0.0603231	0.0256631	2	-0.00101256	1.54807e-06
2	1	0	1	0	35.9129	-0.0565642	-0.0573007	0.0252517	2	-0.00101179	1.44694e-06
2	1	0	1	0	35.9429	-0.0535652	-0.0543253	0.0248364	2	-0.00101103	1.34924e-06
2	1	0	1	0	35.9729	-0.0505663	-0.0513223	0.0244327	2	-0.00101028	1.25394e-06
2	1	0	1	0	35.9923	-0.0486183	-0.0493638	0.0242318	2	-0.0010098	1.19617e-06