File: TAP_Report/Data/MB_SHU/100 uM MB 10mM PB Second ITO_07_CV_C01_2.mpt
EC-Lab ASCII FILE
Nb header lines : 53

Cyclic Voltammetry

Run on channel : 1 (SN 0696)
User :
Electrode connection : standard
Ewe ctrl range : min = -10.00 V, max = 10.00 V
Ewe,I filtering : 50 kHz
Channel : Grounded
Acquisition started on : 05/17/2017 12:14:48
Saved on :
	File : 100 uM MB 10mM PB Second ITO_07_CV_C01.mpr
	Directory : \\userfs\st659\w2k\EC-Lab\Data\ITO Characterisation 17-5-17\
	Host : 144.32.136.43
Device : SP-300 (SN 0182)
Address : USB
EC-Lab for windows v10.44 (software)
Internet server v10.44 (firmware)
Command interpretor v10.44 (firmware)
Electrode material :
Initial state :
Electrolyte :
Comments :
Cable : standard
Electrode surface area : 0.001 cm²
Characteristic mass : 0.001 g
Equivalent Weight : 0.000 g/eq.
Density : 0.000 g/cm3
Ei (V)              0.000
vs.                 Eoc
dE/dt               2500.000
dE/dt unit          mV/s
E1 (V)              0.100
vs.                 Ref
Step percent        50
N                   10
E range min (V)     -10.000
E range max (V)     10.000
I Range             Auto
I Range min         Unset
I Range max         Unset
I Range init        Unset
Bandwidth           8
E2 (V)              -0.600
vs.                 Ref
nc cycles           2
Reverse Scan        1
Ef (V)              0.000
vs.                 Eoc

mode	ox/red	error	control changes	counter inc.	time/s	control/V	Ewe/V	<I>/mA	cycle number	(Q-Qo)/C	P/W
2	1	0	0	1	422.903	-0.599827	-0.60005	-0.0183284	2	-4.08992e-06	1.0998e-05
2	1	0	1	1	422.904	-0.596995	-0.59723	-0.0154862	2	-4.10718e-06	9.24885e-06
2	1	0	1	1	422.906	-0.591997	-0.592246	-0.0121769	2	-4.13443e-06	7.21172e-06
2	1	0	1	1	422.908	-0.586999	-0.587228	-0.0101287	2	-4.15651e-06	5.94788e-06
2	1	0	1	1	422.91	-0.582	-0.582217	-0.00868993	2	-4.17517e-06	5.05942e-06
2	1	0	1	1	422.912	-0.577002	-0.577239	-0.00760498	2	-4.19134e-06	4.38989e-06
2	1	0	1	1	422.914	-0.572004	-0.572247	-0.00672172	2	-4.20558e-06	3.84648e-06
2	1	0	1	1	422.916	-0.567006	-0.567254	-0.00599369	2	-4.21821e-06	3.39995e-06
2	1	0	1	1	422.918	-0.562008	-0.562228	-0.00537604	2	-4.22952e-06	3.02256e-06
2	1	0	1	1	422.92	-0.55701	-0.557234	-0.0048456	2	-4.23968e-06	2.70013e-06
2	1	0	1	1	422.922	-0.552012	-0.55222	-0.00437404	2	-4.24886e-06	2.41543e-06
2	1	0	1	1	422.924	-0.547014	-0.547221	-0.00396488	2	-4.25715e-06	2.16967e-06
2	1	0	1	1	422.926	-0.542016	-0.542221	-0.00359594	2	-4.26467e-06	1.94979e-06
2	1	0	1	1	422.928	-0.537018	-0.537213	-0.00325658	2	-4.27149e-06	1.74948e-06
2	1	0	1	1	422.93	-0.53202	-0.532226	-0.00296063	2	-4.27768e-06	1.57573e-06
2	1	0	1	1	422.932	-0.527022	-0.527255	-0.00267842	2	-4.28329e-06	1.41221e-06
2	1	0	1	1	422.934	-0.522023	-0.522248	-0.00241165	2	-4.28835e-06	1.25948e-06
2	1	0	1	1	422.936	-0.517025	-0.517231	-0.00216404	2	-4.2929e-06	1.11931e-06
2	1	0	1	1	422.938	-0.512027	-0.512252	-0.00194905	2	-4.29699e-06	9.98407e-07
2	1	0	1	1	422.94	-0.507029	-0.507241	-0.0017325	2	-4.30065e-06	8.78798e-07
2	1	0	1	1	422.942	-0.502031	-0.502242	-0.00152833	2	-4.30389e-06	7.67591e-07
2	1	0	1	1	422.944	-0.497033	-0.497254	-0.00134019	2	-4.30674e-06	6.66416e-07
2	1	0	1	1	422.946	-0.492035	-0.492273	-0.00116511	2	-4.30923e-06	5.73552e-07
2	1	0	1	1	422.948	-0.487037	-0.487271	-0.00100407	2	-4.31138e-06	4.89256e-07
2	1	0	1	1	422.95	-0.482039	-0.482246	-0.000842996	2	-4.31321e-06	4.06531e-07
2	1	0	1	1	422.952	-0.477041	-0.477279	-0.000681727	2	-4.31472e-06	3.25374e-07
2	1	0	1	1	422.954	-0.472042	-0.472278	-0.000542283	2	-4.31593e-06	2.56108e-07
2	1	0	1	1	422.956	-0.467044	-0.467269	-0.000392351	2	-4.31685e-06	1.83333e-07
2	1	0	1	1	422.958	-0.462046	-0.462257	-0.000256467	2	-4.31748e-06	1.18554e-07
2	1	0	1	1	422.96	-0.457048	-0.457254	-0.000123761	2	-4.31785e-06	5.65901e-08
2	1	0	1	1	422.962	-0.45205	-0.452249	6.12697e-06	2	-4.31795e-06	2.77092e-09
2	1	0	1	1	422.964	-0.446885	-0.447091	0.000199645	2	-4.31773e-06	8.92593e-08
2	1	0	1	1	422.966	-0.441887	-0.44212	0.000280565	2	-4.31725e-06	1.24043e-07
2	1	0	1	1	422.968	-0.436889	-0.437125	0.000380216	2	-4.31657e-06	1.66202e-07
2	1	0	1	1	422.97	-0.431891	-0.43209	0.000489191	2	-4.31569e-06	2.11375e-07
2	1	0	1	1	422.972	-0.426893	-0.427105	0.000599733	2	-4.3146e-06	2.56149e-07
2	1	0	1	1	422.974	-0.421895	-0.422141	0.000695422	2	-4.31329e-06	2.93566e-07
2	1	0	1	1	422.976	-0.416897	-0.417124	0.000810605	2	-4.31177e-06	3.38122e-07
2	1	0	1	1	422.978	-0.411899	-0.41212	0.000918308	2	-4.31004e-06	3.78453e-07
2	1	0	1	1	422.98	-0.406901	-0.407119	0.00101783	2	-4.30809e-06	4.14379e-07
2	1	0	1	1	422.982	-0.401903	-0.402125	0.00111191	2	-4.30594e-06	4.47127e-07
2	1	0	1	1	422.984	-0.396904	-0.397155	0.00121936	2	-4.30361e-06	4.84275e-07
2	1	0	1	1	422.986	-0.391906	-0.392127	0.00132448	2	-4.30105e-06	5.19363e-07
2	1	0	1	1	422.988	-0.386908	-0.387142	0.00142006	2	-4.29829e-06	5.49764e-07
2	1	0	1	1	422.99	-0.38191	-0.38213	0.00153158	2	-4.29533e-06	5.85261e-07
2	1	0	1	1	422.992	-0.376912	-0.377118	0.00163672	2	-4.29215e-06	6.17234e-07
2	1	0	1	1	422.994	-0.371914	-0.372131	0.0017341	2	-4.28877e-06	6.45313e-07
2	1	0	1	1	422.996	-0.366916	-0.367122	0.00182934	2	-4.2852e-06	6.71593e-07
2	1	0	1	1	422.998	-0.361918	-0.362125	0.00191944	2	-4.28144e-06	6.95077e-07
2	1	0	1	1	423	-0.35692	-0.357128	0.00201106	2	-4.2775e-06	7.18206e-07
2	1	0	1	1	423.002	-0.351922	-0.352145	0.00211878	2	-4.27336e-06	7.4612e-07
2	1	0	1	1	423.004	-0.346924	-0.34713	0.00222649	2	-4.26901e-06	7.7288e-07
2	1	0	1	1	423.006	-0.341925	-0.342146	0.00232769	2	-4.26444e-06	7.96409e-07
2	1	0	1	1	423.008	-0.336927	-0.337133	0.00245183	2	-4.25965e-06	8.26592e-07
2	1	0	1	1	423.01	-0.331929	-0.332119	0.00254633	2	-4.25464e-06	8.45685e-07
2	1	0	1	1	423.012	-0.326931	-0.327105	0.00265885	2	-4.24943e-06	8.69722e-07
2	1	0	1	1	423.014	-0.321933	-0.322124	0.00276727	2	-4.24399e-06	8.91405e-07
2	1	0	1	1	423.016	-0.316935	-0.317133	0.00287271	2	-4.23834e-06	9.1103e-07
2	1	0	1	1	423.018	-0.311937	-0.312154	0.00298854	2	-4.23247e-06	9.32886e-07
2	1	0	1	1	423.02	-0.306939	-0.307125	0.00311574	2	-4.22635e-06	9.56922e-07
2	1	0	1	1	423.022	-0.301941	-0.302141	0.003253	2	-4.21997e-06	9.82865e-07
2	1	0	1	1	423.024	-0.296943	-0.297127	0.00339143	2	-4.21331e-06	1.00768e-06
2	1	0	1	1	423.026	-0.291944	-0.292111	0.00353859	2	-4.20636e-06	1.03366e-06
2	1	0	1	1	423.028	-0.286946	-0.287118	0.00368894	2	-4.19912e-06	1.05916e-06
2	1	0	1	1	423.03	-0.281948	-0.282116	0.00386242	2	-4.19156e-06	1.08965e-06
2	1	0	1	1	423.032	-0.27695	-0.277116	0.00400976	2	-4.18367e-06	1.11117e-06
2	1	0	1	1	423.034	-0.271952	-0.272157	0.00420019	2	-4.17544e-06	1.14311e-06
2	1	0	1	1	423.036	-0.266954	-0.267151	0.00438932	2	-4.16683e-06	1.17261e-06
2	1	0	1	1	423.038	-0.261956	-0.262142	0.00462045	2	-4.1578e-06	1.21122e-06
2	1	0	1	1	423.04	-0.256958	-0.257136	0.00486012	2	-4.1483e-06	1.24971e-06
2	1	0	1	1	423.042	-0.25196	-0.252152	0.00510052	2	-4.13831e-06	1.2861e-06
2	1	0	1	1	423.044	-0.246962	-0.247168	0.00537452	2	-4.12781e-06	1.32841e-06
2	1	0	1	1	423.046	-0.241964	-0.242145	0.00569856	2	-4.11671e-06	1.37988e-06
2	1	0	1	1	423.048	-0.236965	-0.237159	0.00601735	2	-4.10496e-06	1.42707e-06
2	1	0	1	1	423.05	-0.231967	-0.232175	0.00636489	2	-4.09255e-06	1.47777e-06
2	1	0	1	1	423.052	-0.226969	-0.227193	0.00673713	2	-4.07941e-06	1.53063e-06
2	1	0	1	1	423.054	-0.221971	-0.222181	0.00718076	2	-4.06545e-06	1.59543e-06
2	1	0	1	1	423.056	-0.216973	-0.217191	0.00761069	2	-4.05061e-06	1.65297e-06
2	1	0	1	1	423.058	-0.211975	-0.212164	0.00808171	2	-4.03487e-06	1.71465e-06
2	1	0	1	1	423.06	-0.206977	-0.207143	0.00861027	2	-4.01813e-06	1.78355e-06
2	1	0	1	1	423.062	-0.201979	-0.202155	0.00913991	2	-4.00033e-06	1.84768e-06
2	1	0	1	1	423.064	-0.196981	-0.197152	0.00970328	2	-3.98143e-06	1.91302e-06
2	1	0	1	1	423.066	-0.191983	-0.192174	0.0102679	2	-3.9614e-06	1.97322e-06
2	1	0	1	1	423.068	-0.186984	-0.187174	0.0108619	2	-3.94021e-06	2.03306e-06
2	1	0	1	1	423.07	-0.181986	-0.182186	0.0114773	2	-3.91781e-06	2.091e-06
2	1	0	1	1	423.072	-0.176988	-0.177177	0.0120851	2	-3.89418e-06	2.14121e-06
2	1	0	1	1	423.074	-0.17199	-0.172194	0.0127053	2	-3.86934e-06	2.18777e-06
2	1	0	1	1	423.076	-0.166992	-0.167186	0.0133449	2	-3.84322e-06	2.23108e-06
2	1	0	1	1	423.078	-0.161994	-0.16218	0.0139369	2	-3.81587e-06	2.26028e-06
2	1	0	1	1	423.08	-0.156996	-0.157173	0.0145343	2	-3.78734e-06	2.2844e-06
2	1	0	1	1	423.082	-0.151998	-0.152169	0.0151122	2	-3.75763e-06	2.29961e-06
2	1	0	1	1	423.084	-0.147	-0.147194	0.0156903	2	-3.72677e-06	2.30951e-06
2	1	0	1	1	423.086	-0.142002	-0.142188	0.0162218	2	-3.69481e-06	2.30655e-06
2	1	0	1	1	423.088	-0.137004	-0.137185	0.0167423	2	-3.66179e-06	2.29679e-06
2	1	0	1	1	423.09	-0.132005	-0.132178	0.0171519	2	-3.62785e-06	2.26711e-06
2	1	0	1	1	423.092	-0.127007	-0.127178	0.017589	2	-3.59308e-06	2.23693e-06
2	1	0	1	1	423.094	-0.122009	-0.122171	0.0179265	2	-3.55752e-06	2.1901e-06
2	1	0	1	1	423.096	-0.117011	-0.117169	0.0182717	2	-3.52129e-06	2.14088e-06
2	1	0	1	1	423.098	-0.112013	-0.112175	0.0184671	2	-3.48453e-06	2.07155e-06
2	1	0	1	1	423.1	-0.107015	-0.107165	0.0186013	2	-3.44746e-06	1.99342e-06
2	1	0	1	1	423.102	-0.102017	-0.102195	0.0187129	2	-3.41013e-06	1.91236e-06
2	1	0	1	1	423.104	-0.0970188	-0.0972006	0.0187491	2	-3.37266e-06	1.82243e-06
2	1	0	1	1	423.106	-0.0920207	-0.0921619	0.0187728	2	-3.33515e-06	1.73013e-06
2	1	0	1	1	423.108	-0.0870226	-0.0871714	0.0185913	2	-3.29779e-06	1.62063e-06
2	1	0	1	1	423.11	-0.0820245	-0.082209	0.0184789	2	-3.26073e-06	1.51913e-06
2	1	0	1	1	423.112	-0.0770264	-0.0772112	0.0183073	2	-3.22396e-06	1.41353e-06
2	1	0	1	1	423.114	-0.0720283	-0.072191	0.0180663	2	-3.18761e-06	1.30422e-06
2	1	0	1	1	423.116	-0.0670302	-0.0671981	0.0177212	2	-3.15185e-06	1.19083e-06
2	1	0	1	1	423.118	-0.0620321	-0.062201	0.0173936	2	-3.11677e-06	1.0819e-06
2	1	0	1	1	423.12	-0.057034	-0.0572229	0.0171008	2	-3.08231e-06	9.78559e-07
2	1	0	1	1	423.122	-0.0520359	-0.0522266	0.016743	2	-3.04851e-06	8.74432e-07
2	1	0	1	1	423.124	-0.0470379	-0.0472251	0.0163788	2	-3.01542e-06	7.73492e-07
2	1	0	1	1	423.126	-0.0420398	-0.0422182	0.016024	2	-2.98306e-06	6.76506e-07
2	1	0	1	1	423.128	-0.0370417	-0.0372085	0.015739	2	-2.95134e-06	5.85625e-07
2	1	0	1	1	423.13	-0.0320436	-0.032215	0.0154079	2	-2.92023e-06	4.96365e-07
2	1	0	1	1	423.132	-0.0270455	-0.027191	0.015027	2	-2.88983e-06	4.08597e-07
2	1	0	1	1	423.134	-0.0220474	-0.0221936	0.0147007	2	-2.86014e-06	3.26263e-07
2	1	0	1	1	423.136	-0.0170493	-0.0172141	0.0143782	2	-2.83109e-06	2.47507e-07
2	1	0	1	1	423.138	-0.0119401	-0.0121201	0.0141696	2	-2.80257e-06	1.71736e-07
2	1	0	1	1	423.14	-0.00688649	-0.00706254	0.0138932	2	-2.77453e-06	9.81216e-08
2	1	0	1	1	423.142	-0.0018884	-0.00205757	0.0135956	2	-2.74707e-06	2.79738e-08
2	1	0	1	1	423.144	0.0031097	0.00295483	0.0133768	2	-2.72013e-06	3.95261e-08
2	1	0	1	1	423.146	0.00810779	0.00796976	0.0131372	2	-2.69363e-06	1.047e-07
2	1	0	1	1	423.148	0.0131059	0.0129724	0.0129706	2	-2.66754e-06	1.6826e-07
2	1	0	1	1	423.15	0.018104	0.0179744	0.0127578	2	-2.64184e-06	2.29314e-07
2	1	0	1	1	423.152	0.0231021	0.0229406	0.0125545	2	-2.61654e-06	2.88008e-07
2	1	0	1	1	423.154	0.0281002	0.0279574	0.0123779	2	-2.59163e-06	3.46056e-07
2	1	0	1	1	423.156	0.0330983	0.0329588	0.0122095	2	-2.56706e-06	4.0241e-07
2	1	0	1	1	423.158	0.0380963	0.03795	0.0120886	2	-2.54279e-06	4.58763e-07
2	1	0	1	1	423.16	0.0430944	0.0429575	0.0119342	2	-2.51878e-06	5.12664e-07
2	1	0	1	1	423.162	0.0480925	0.0479841	0.0117694	2	-2.49509e-06	5.64742e-07
2	1	0	1	1	423.164	0.0530906	0.0529547	0.0116716	2	-2.47166e-06	6.18066e-07
2	1	0	1	1	423.166	0.0580887	0.0580061	0.011542	2	-2.44846e-06	6.69509e-07
2	1	0	1	1	423.168	0.0630868	0.0629857	0.0114282	2	-2.4255e-06	7.19813e-07
2	1	0	1	1	423.17	0.0680849	0.0679567	0.0113157	2	-2.40277e-06	7.68981e-07
2	1	0	1	1	423.172	0.073083	0.0729668	0.0112084	2	-2.38026e-06	8.17838e-07
2	1	0	1	1	423.174	0.0780811	0.0779476	0.011117	2	-2.35795e-06	8.66541e-07
2	1	0	1	1	423.176	0.0830792	0.0829411	0.01101	2	-2.33583e-06	9.13185e-07
2	1	0	1	1	423.178	0.0880773	0.0879259	0.0109283	2	-2.3139e-06	9.60882e-07
2	1	0	1	1	423.18	0.0930754	0.0929438	0.0108625	2	-2.29212e-06	1.0096e-06
2	1	0	1	1	423.182	0.0975737	0.0974452	0.0107822	2	-2.27264e-06	1.05067e-06
2	1	0	1	1	423.183	0.0999061	0.0998031	0.0107858	2	-2.26295e-06	1.07645e-06
2	1	0	0	1	423.183	0.100239	0.10015	0.0106828	2	-2.26081e-06	1.06988e-06
2	0	0	1	1	423.184	0.0999061	0.0998184	0.0101431	2	-2.25878e-06	1.01247e-06
2	0	0	0	1	423.185	0.0970738	0.097002	0.00760198	2	-2.25021e-06	7.37407e-07
2	0	0	0	1	423.187	0.0920757	0.0919889	0.00517933	2	-2.23775e-06	4.76441e-07
2	0	0	0	1	423.189	0.0870777	0.0869738	0.0039488	2	-2.22877e-06	3.43442e-07
2	0	0	0	1	423.191	0.0820795	0.0819851	0.00316414	2	-2.22174e-06	2.59412e-07
2	0	0	0	1	423.193	0.0770815	0.0769978	0.00258043	2	-2.21606e-06	1.98687e-07
2	0	0	0	1	423.195	0.0720834	0.0719856	0.00210815	2	-2.21143e-06	1.51756e-07
2	0	0	0	1	423.197	0.0670853	0.0669999	0.00171168	2	-2.20765e-06	1.14683e-07
2	0	0	0	1	423.199	0.0620872	0.0620134	0.00136643	2	-2.2046e-06	8.4737e-08
2	0	0	0	1	423.201	0.0570891	0.0570304	0.00105703	2	-2.20221e-06	6.0283e-08
2	0	0	0	1	423.203	0.052091	0.0520176	0.00076187	2	-2.20043e-06	3.96307e-08
2	0	0	0	1	423.205	0.0470929	0.0470148	0.000507498	2	-2.19919e-06	2.38599e-08
2	0	0	0	1	423.207	0.0420948	0.0419994	0.00025232	2	-2.19845e-06	1.05973e-08
2	0	0	0	1	423.209	0.0370967	0.03699	3.83764e-05	2	-2.19818e-06	1.41954e-09
2	0	0	0	1	423.211	0.0320986	0.0319916	-0.000177072	2	-2.19834e-06	5.66482e-09
2	0	0	0	1	423.213	0.0271005	0.0269796	-0.000369785	2	-2.19891e-06	9.97666e-09
2	0	0	0	1	423.215	0.0221024	0.0220052	-0.000558408	2	-2.19986e-06	1.22879e-08
2	0	0	0	1	423.217	0.0171044	0.0170161	-0.000735568	2	-2.20117e-06	1.25165e-08
2	0	0	0	1	423.219	0.0121063	0.0120079	-0.000916309	2	-2.20284e-06	1.1003e-08
2	0	0	0	1	423.221	0.00710817	0.00700404	-0.00108504	2	-2.20486e-06	7.59963e-09
2	0	0	0	1	423.223	0.00211008	0.00196791	-0.00125385	2	-2.20721e-06	2.46746e-09
2	0	0	0	1	423.225	-0.00288801	-0.00303028	-0.00140594	2	-2.20989e-06	4.2604e-09
2	0	0	0	1	423.227	-0.00788611	-0.00801194	-0.0015627	2	-2.21287e-06	1.25202e-08
2	0	0	0	1	423.229	-0.0129768	-0.0131201	-0.00176418	2	-2.21622e-06	2.31463e-08
2	0	0	0	1	423.231	-0.0180489	-0.0181817	-0.00189418	2	-2.21989e-06	3.44394e-08
2	0	0	0	1	423.233	-0.023047	-0.0231716	-0.0020155	2	-2.22381e-06	4.67025e-08
2	0	0	0	1	423.235	-0.0280451	-0.0281656	-0.00215414	2	-2.22799e-06	6.06727e-08
2	0	0	0	1	423.237	-0.0330432	-0.0331805	-0.00229939	2	-2.23246e-06	7.6295e-08
2	0	0	0	1	423.239	-0.0380413	-0.0381666	-0.00243937	2	-2.23722e-06	9.31024e-08
2	0	0	0	1	423.241	-0.0430394	-0.0431911	-0.00259394	2	-2.24226e-06	1.12035e-07
2	0	0	0	1	423.243	-0.0480375	-0.0481819	-0.00272105	2	-2.24759e-06	1.31105e-07
2	0	0	0	1	423.245	-0.0530356	-0.053197	-0.00287321	2	-2.2532e-06	1.52846e-07
2	0	0	0	1	423.247	-0.0580337	-0.0581798	-0.0030132	2	-2.2591e-06	1.75307e-07
2	0	0	0	1	423.249	-0.0630317	-0.0631692	-0.00315917	2	-2.26529e-06	1.99563e-07
2	0	0	0	1	423.251	-0.0680299	-0.068192	-0.00331351	2	-2.27178e-06	2.25955e-07
2	0	0	0	1	423.253	-0.0730279	-0.0731641	-0.00347001	2	-2.27858e-06	2.53881e-07
2	0	0	0	1	423.255	-0.078026	-0.0781922	-0.00363751	2	-2.2857e-06	2.84425e-07
2	0	0	0	1	423.257	-0.0830241	-0.0831637	-0.00381206	2	-2.29317e-06	3.17025e-07
2	0	0	0	1	423.259	-0.0880222	-0.0881515	-0.00398469	2	-2.30098e-06	3.51257e-07
2	0	0	0	1	423.261	-0.0930203	-0.0931461	-0.0041851	2	-2.30917e-06	3.89825e-07
2	0	0	0	1	423.263	-0.0980184	-0.0981538	-0.00439743	2	-2.31777e-06	4.31624e-07
2	0	0	0	1	423.265	-0.103017	-0.103143	-0.00461209	2	-2.3268e-06	4.75704e-07
2	0	0	0	1	423.267	-0.108015	-0.108118	-0.00484049	2	-2.33628e-06	5.23344e-07
2	0	0	0	1	423.269	-0.113013	-0.113119	-0.00509588	2	-2.34624e-06	5.76442e-07
2	0	0	0	1	423.271	-0.118011	-0.118138	-0.00538307	2	-2.35675e-06	6.35947e-07
2	0	0	0	1	423.273	-0.123009	-0.123119	-0.00568122	2	-2.36784e-06	6.99463e-07
2	0	0	0	1	423.275	-0.128007	-0.128147	-0.00602675	2	-2.37958e-06	7.72312e-07
2	0	0	0	1	423.277	-0.133005	-0.133136	-0.00636043	2	-2.392e-06	8.46803e-07
2	0	0	0	1	423.279	-0.138003	-0.138144	-0.00675535	2	-2.40516e-06	9.33208e-07
2	0	0	0	1	423.281	-0.143001	-0.143148	-0.00715156	2	-2.4191e-06	1.02373e-06
2	0	0	0	1	423.283	-0.147999	-0.148135	-0.00757544	2	-2.43387e-06	1.12219e-06
2	0	0	0	1	423.285	-0.152997	-0.153136	-0.00804035	2	-2.44953e-06	1.23127e-06
2	0	0	0	1	423.287	-0.157996	-0.158138	-0.00851366	2	-2.46613e-06	1.34634e-06
2	0	0	0	1	423.289	-0.162994	-0.163146	-0.00902671	2	-2.48373e-06	1.47267e-06
2	0	0	0	1	423.291	-0.167992	-0.168151	-0.00955022	2	-2.50235e-06	1.60588e-06
2	0	0	0	1	423.293	-0.17299	-0.173139	-0.0100958	2	-2.52205e-06	1.74797e-06
2	0	0	0	1	423.295	-0.177988	-0.17814	-0.0106695	2	-2.54287e-06	1.90066e-06
2	0	0	0	1	423.297	-0.182986	-0.183149	-0.0112266	2	-2.56483e-06	2.05615e-06
2	0	0	0	1	423.299	-0.187984	-0.188156	-0.0118228	2	-2.58793e-06	2.22454e-06
2	0	0	0	1	423.301	-0.192982	-0.193131	-0.012404	2	-2.61221e-06	2.3956e-06
2	0	0	0	1	423.303	-0.19798	-0.198099	-0.0130003	2	-2.63769e-06	2.57533e-06
2	0	0	0	1	423.305	-0.202978	-0.203114	-0.0136393	2	-2.66438e-06	2.77035e-06
2	0	0	0	1	423.307	-0.207976	-0.208122	-0.0142208	2	-2.69231e-06	2.95967e-06
2	0	0	0	1	423.309	-0.212975	-0.213135	-0.0147911	2	-2.72138e-06	3.15251e-06
2	0	0	0	1	423.311	-0.217973	-0.21813	-0.0153608	2	-2.75159e-06	3.35065e-06
2	0	0	0	1	423.313	-0.222971	-0.223136	-0.0159135	2	-2.78291e-06	3.55087e-06
2	0	0	0	1	423.315	-0.227969	-0.228128	-0.0164394	2	-2.81532e-06	3.75029e-06
2	0	0	0	1	423.317	-0.232967	-0.233132	-0.0169897	2	-2.8488e-06	3.96085e-06
2	0	0	0	1	423.319	-0.237965	-0.238126	-0.0174509	2	-2.88329e-06	4.15551e-06
2	0	0	0	1	423.321	-0.242963	-0.243109	-0.0178732	2	-2.91866e-06	4.34514e-06
2	0	0	0	1	423.323	-0.247961	-0.248115	-0.0183099	2	-2.95489e-06	4.54297e-06
2	0	0	0	1	423.325	-0.252959	-0.253126	-0.018685	2	-2.99191e-06	4.72966e-06
2	0	0	0	1	423.327	-0.257957	-0.25811	-0.0190718	2	-3.0297e-06	4.92264e-06
2	0	0	0	1	423.329	-0.262956	-0.2631	-0.0193835	2	-3.06819e-06	5.09981e-06
2	0	0	0	1	423.331	-0.267954	-0.268107	-0.0197226	2	-3.10733e-06	5.28777e-06
2	0	0	0	1	423.333	-0.272952	-0.273108	-0.0200107	2	-3.14708e-06	5.46507e-06
2	0	0	0	1	423.335	-0.27795	-0.278082	-0.0201523	2	-3.18726e-06	5.60397e-06
2	0	0	0	1	423.337	-0.282948	-0.283071	-0.0203055	2	-3.22774e-06	5.7479e-06
2	0	0	0	1	423.339	-0.287946	-0.288085	-0.0204602	2	-3.26852e-06	5.89427e-06
2	0	0	0	1	423.341	-0.292944	-0.293075	-0.0205758	2	-3.30957e-06	6.03025e-06
2	0	0	0	1	423.343	-0.297942	-0.298088	-0.020596	2	-3.35075e-06	6.13942e-06
2	0	0	0	1	423.345	-0.30294	-0.303101	-0.020588	2	-3.39194e-06	6.24025e-06
2	0	0	0	1	423.347	-0.307938	-0.308105	-0.0206129	2	-3.43316e-06	6.35095e-06
2	0	0	0	1	423.349	-0.312936	-0.313101	-0.0204832	2	-3.47425e-06	6.41331e-06
2	0	0	0	1	423.351	-0.317935	-0.318109	-0.0203671	2	-3.51508e-06	6.47896e-06
2	0	0	0	1	423.353	-0.322933	-0.323089	-0.0202664	2	-3.5557e-06	6.54785e-06
2	0	0	0	1	423.355	-0.327931	-0.328088	-0.0200862	2	-3.59604e-06	6.59005e-06
2	0	0	0	1	423.357	-0.332929	-0.333095	-0.0199091	2	-3.63601e-06	6.63162e-06
2	0	0	0	1	423.359	-0.337927	-0.338095	-0.0197302	2	-3.67564e-06	6.67068e-06
2	0	0	0	1	423.361	-0.342925	-0.343135	-0.0195396	2	-3.71489e-06	6.70471e-06
2	0	0	0	1	423.363	-0.347923	-0.348087	-0.0193072	2	-3.75372e-06	6.72059e-06
2	0	0	0	1	423.365	-0.352921	-0.35311	-0.0191322	2	-3.79215e-06	6.75578e-06
2	0	0	0	1	423.367	-0.357919	-0.358107	-0.0188808	2	-3.83013e-06	6.76136e-06
2	0	0	0	1	423.369	-0.362917	-0.363105	-0.0186625	2	-3.86765e-06	6.77645e-06
2	0	0	0	1	423.371	-0.367916	-0.368084	-0.0184522	2	-3.90475e-06	6.79196e-06
2	0	0	0	1	423.373	-0.372914	-0.373096	-0.0182238	2	-3.94141e-06	6.79924e-06
2	0	0	0	1	423.375	-0.377912	-0.378098	-0.0180473	2	-3.97766e-06	6.82366e-06
2	0	0	0	1	423.377	-0.38291	-0.383096	-0.017898	2	-4.01359e-06	6.85666e-06
2	0	0	0	1	423.379	-0.387908	-0.388124	-0.0177149	2	-4.04919e-06	6.8756e-06
2	0	0	0	1	423.381	-0.392906	-0.393129	-0.0175534	2	-4.08445e-06	6.90075e-06
2	0	0	0	1	423.383	-0.397904	-0.398111	-0.0173945	2	-4.11938e-06	6.92495e-06
2	0	0	0	1	423.385	-0.402902	-0.403086	-0.0172432	2	-4.15401e-06	6.9505e-06
2	0	0	0	1	423.387	-0.4079	-0.408086	-0.0170881	2	-4.18832e-06	6.97343e-06
2	0	0	0	1	423.389	-0.412898	-0.413093	-0.0169846	2	-4.22237e-06	7.0162e-06
2	0	0	0	1	423.391	-0.417896	-0.41809	-0.01684	2	-4.25619e-06	7.04063e-06
2	0	0	0	1	423.393	-0.422895	-0.42309	-0.0167536	2	-4.28976e-06	7.08825e-06
2	0	0	0	1	423.395	-0.427893	-0.428073	-0.016671	2	-4.32317e-06	7.13643e-06
2	0	0	0	1	423.397	-0.432891	-0.433068	-0.0165334	2	-4.35637e-06	7.1601e-06
2	0	0	0	1	423.399	-0.437889	-0.438073	-0.0164626	2	-4.38936e-06	7.21183e-06
2	0	0	0	1	423.401	-0.442887	-0.443063	-0.0164063	2	-4.42222e-06	7.26905e-06
2	0	0	0	1	423.403	-0.447922	-0.448114	-0.0163806	2	-4.455e-06	7.34036e-06
2	0	0	0	1	423.405	-0.45305	-0.453206	-0.0163373	2	-4.48773e-06	7.40417e-06
2	0	0	0	1	423.407	-0.458048	-0.458215	-0.0162254	2	-4.52028e-06	7.43471e-06
2	0	0	0	1	423.409	-0.463046	-0.463197	-0.01616	2	-4.55266e-06	7.48525e-06
2	0	0	0	1	423.411	-0.468044	-0.468244	-0.0161158	2	-4.58493e-06	7.54615e-06
2	0	0	0	1	423.413	-0.473042	-0.473231	-0.016093	2	-4.61714e-06	7.61571e-06
2	0	0	0	1	423.415	-0.47804	-0.478225	-0.0160568	2	-4.64928e-06	7.67877e-06
2	0	0	0	1	423.417	-0.483038	-0.483243	-0.0160366	2	-4.68137e-06	7.74959e-06
2	0	0	0	1	423.419	-0.488036	-0.488227	-0.016016	2	-4.71342e-06	7.81946e-06
2	0	0	0	1	423.421	-0.493034	-0.49321	-0.0159955	2	-4.74544e-06	7.88915e-06
2	0	0	0	1	423.423	-0.498033	-0.498212	-0.0160162	2	-4.77744e-06	7.97948e-06
2	0	0	0	1	423.425	-0.503031	-0.50323	-0.0159708	2	-4.80942e-06	8.037e-06
2	0	0	0	1	423.427	-0.508029	-0.508231	-0.0159577	2	-4.84135e-06	8.11021e-06
2	0	0	0	1	423.429	-0.513027	-0.513227	-0.015999	2	-4.87332e-06	8.21111e-06
2	0	0	0	1	423.431	-0.518025	-0.518205	-0.0159996	2	-4.90532e-06	8.29107e-06
2	0	0	0	1	423.433	-0.523023	-0.523218	-0.0160037	2	-4.93733e-06	8.3734e-06
2	0	0	0	1	423.435	-0.528021	-0.52821	-0.0160119	2	-4.96934e-06	8.45767e-06
2	0	0	0	1	423.437	-0.533019	-0.533192	-0.0160521	2	-5.00142e-06	8.55887e-06
2	0	0	0	1	423.439	-0.538017	-0.538201	-0.0160977	2	-5.03357e-06	8.66379e-06
2	0	0	0	1	423.441	-0.543015	-0.543177	-0.0161178	2	-5.06579e-06	8.7548e-06
2	0	0	0	1	423.443	-0.548014	-0.5482	-0.016161	2	-5.09807e-06	8.85948e-06
2	0	0	0	1	423.445	-0.553012	-0.553194	-0.0161952	2	-5.13043e-06	8.95909e-06
2	0	0	0	1	423.447	-0.55801	-0.558205	-0.0162523	2	-5.16288e-06	9.07214e-06
2	0	0	0	1	423.449	-0.563008	-0.563209	-0.0163612	2	-5.1955e-06	9.21476e-06
2	0	0	0	1	423.451	-0.568006	-0.56821	-0.0164208	2	-5.22829e-06	9.33049e-06
2	0	0	0	1	423.453	-0.573004	-0.573208	-0.0165049	2	-5.26122e-06	9.46076e-06
2	0	0	0	1	423.455	-0.578002	-0.578186	-0.0165359	2	-5.29426e-06	9.56081e-06
2	0	0	0	1	423.457	-0.583	-0.583192	-0.0166596	2	-5.32747e-06	9.71574e-06
2	0	0	0	1	423.459	-0.587998	-0.58819	-0.0168036	2	-5.36095e-06	9.88372e-06
2	0	0	0	1	423.461	-0.592996	-0.593178	-0.0169003	2	-5.39466e-06	1.00249e-05
2	0	0	0	1	423.462	-0.597495	-0.597678	-0.0169859	2	-5.42517e-06	1.01521e-05
2	0	0	0	1	423.463	-0.599827	-0.599955	-0.0171133	2	-5.44048e-06	1.02672e-05
2	0	0	1	1	423.464	-0.60016	-0.60031	-0.0170564	2	-5.44389e-06	1.02391e-05