File: TAP_Report/Data/MB_SHU/100 uM MB 10mM PB Second ITO_04_CV_C01_2.mpt
EC-Lab ASCII FILE
Nb header lines : 53

Cyclic Voltammetry

Run on channel : 1 (SN 0696)
User :
Electrode connection : standard
Ewe ctrl range : min = -10.00 V, max = 10.00 V
Ewe,I filtering : 50 kHz
Channel : Grounded
Acquisition started on : 05/17/2017 12:14:48
Saved on :
	File : 100 uM MB 10mM PB Second ITO_04_CV_C01.mpr
	Directory : \\userfs\st659\w2k\EC-Lab\Data\ITO Characterisation 17-5-17\
	Host : 144.32.136.43
Device : SP-300 (SN 0182)
Address : USB
EC-Lab for windows v10.44 (software)
Internet server v10.44 (firmware)
Command interpretor v10.44 (firmware)
Electrode material :
Initial state :
Electrolyte :
Comments :
Cable : standard
Electrode surface area : 0.001 cm²
Characteristic mass : 0.001 g
Equivalent Weight : 0.000 g/eq.
Density : 0.000 g/cm3
Ei (V)              0.000
vs.                 Eoc
dE/dt               250.000
dE/dt unit          mV/s
E1 (V)              0.100
vs.                 Ref
Step percent        50
N                   10
E range min (V)     -10.000
E range max (V)     10.000
I Range             Auto
I Range min         Unset
I Range max         Unset
I Range init        Unset
Bandwidth           8
E2 (V)              -0.600
vs.                 Ref
nc cycles           2
Reverse Scan        1
Ef (V)              0.000
vs.                 Eoc

mode	ox/red	error	control changes	counter inc.	time/s	control/V	Ewe/V	<I>/mA	cycle number	(Q-Qo)/C	P/W
2	1	0	1	1	392.339	-0.60016	-0.600401	-0.00713239	2	-1.27869e-05	4.2823e-06
2	1	0	1	1	392.346	-0.598344	-0.598562	-0.00626034	2	-1.28322e-05	3.7472e-06
2	1	0	0	1	392.359	-0.594996	-0.595216	-0.00582601	2	-1.29121e-05	3.46774e-06
2	1	0	1	1	392.373	-0.591647	-0.591872	-0.00557645	2	-1.29878e-05	3.30055e-06
2	1	0	1	1	392.386	-0.588348	-0.588561	-0.00538878	2	-1.30594e-05	3.17163e-06
2	1	0	0	1	392.399	-0.584999	-0.58524	-0.00521714	2	-1.31297e-05	3.05328e-06
2	1	0	1	1	392.413	-0.581651	-0.581846	-0.00506247	2	-1.31978e-05	2.94558e-06
2	1	0	1	1	392.426	-0.578335	-0.578572	-0.00492237	2	-1.32629e-05	2.84795e-06
2	1	0	0	1	392.439	-0.574987	-0.575214	-0.0047964	2	-1.33273e-05	2.75896e-06
2	1	0	0	1	392.452	-0.571688	-0.571913	-0.0046803	2	-1.33891e-05	2.67672e-06
2	1	0	1	1	392.466	-0.568339	-0.568565	-0.00456744	2	-1.34502e-05	2.59688e-06
2	1	0	0	1	392.479	-0.56499	-0.565213	-0.0044595	2	-1.351e-05	2.52057e-06
2	1	0	0	1	392.492	-0.561692	-0.561892	-0.00436008	2	-1.35674e-05	2.44989e-06
2	1	0	1	1	392.506	-0.558343	-0.558567	-0.00426819	2	-1.36245e-05	2.38407e-06
2	1	0	0	1	392.519	-0.554994	-0.555228	-0.00418024	2	-1.36803e-05	2.32099e-06
2	1	0	0	1	392.532	-0.551695	-0.551916	-0.00409203	2	-1.37342e-05	2.25846e-06
2	1	0	1	1	392.546	-0.548347	-0.54855	-0.00401267	2	-1.37877e-05	2.20115e-06
2	1	0	0	1	392.559	-0.544998	-0.545214	-0.00393572	2	-1.38402e-05	2.14581e-06
2	1	0	0	1	392.572	-0.541699	-0.541908	-0.0038598	2	-1.38909e-05	2.09166e-06
2	1	0	1	1	392.586	-0.538351	-0.538552	-0.00378971	2	-1.39414e-05	2.04095e-06
2	1	0	0	1	392.599	-0.535013	-0.535209	-0.00372259	2	-1.39906e-05	1.99236e-06
2	1	0	0	1	392.612	-0.531686	-0.531883	-0.00365788	2	-1.4039e-05	1.94556e-06
2	1	0	1	1	392.626	-0.528338	-0.528542	-0.00359033	2	-1.40868e-05	1.89764e-06
2	1	0	1	1	392.639	-0.525039	-0.525254	-0.00353597	2	-1.41331e-05	1.85728e-06
2	1	0	0	1	392.652	-0.52169	-0.521898	-0.00347285	2	-1.41793e-05	1.81247e-06
2	1	0	1	1	392.666	-0.518342	-0.518532	-0.00341213	2	-1.42247e-05	1.7693e-06
2	1	0	1	1	392.679	-0.515043	-0.51527	-0.00336498	2	-1.42687e-05	1.73387e-06
2	1	0	0	1	392.692	-0.511694	-0.511912	-0.00330793	2	-1.43126e-05	1.69337e-06
2	1	0	1	1	392.706	-0.508345	-0.508564	-0.00325278	2	-1.43559e-05	1.65425e-06
2	1	0	1	1	392.719	-0.505047	-0.505253	-0.00320486	2	-1.43978e-05	1.61927e-06
2	1	0	0	1	392.732	-0.501698	-0.501913	-0.00315376	2	-1.44396e-05	1.58291e-06
2	1	0	1	1	392.746	-0.498349	-0.498568	-0.0031056	2	-1.44808e-05	1.54835e-06
2	1	0	1	1	392.759	-0.49505	-0.495246	-0.0030593	2	-1.45208e-05	1.5151e-06
2	1	0	0	1	392.772	-0.491691	-0.491897	-0.00301234	2	-1.45607e-05	1.48176e-06
2	1	0	0	1	392.786	-0.488386	-0.488616	-0.00297394	2	-1.45995e-05	1.45312e-06
2	1	0	1	1	392.799	-0.485038	-0.485239	-0.00292569	2	-1.46382e-05	1.41966e-06
2	1	0	0	1	392.812	-0.481689	-0.481915	-0.00288278	2	-1.46764e-05	1.38926e-06
2	1	0	0	1	392.826	-0.47839	-0.4786	-0.00283923	2	-1.47135e-05	1.35886e-06
2	1	0	1	1	392.839	-0.475041	-0.475247	-0.00279899	2	-1.47505e-05	1.33021e-06
2	1	0	0	1	392.852	-0.471693	-0.471908	-0.00276056	2	-1.47871e-05	1.30273e-06
2	1	0	0	1	392.866	-0.468394	-0.468614	-0.00272142	2	-1.48225e-05	1.27529e-06
2	1	0	1	1	392.879	-0.465045	-0.465237	-0.00267995	2	-1.4858e-05	1.24681e-06
2	1	0	0	1	392.892	-0.461696	-0.461895	-0.00264437	2	-1.48929e-05	1.22142e-06
2	1	0	0	1	392.906	-0.458398	-0.458578	-0.0026089	2	-1.49268e-05	1.19639e-06
2	1	0	1	1	392.919	-0.455049	-0.455219	-0.00256944	2	-1.49608e-05	1.16966e-06
2	1	0	0	1	392.932	-0.4517	-0.45187	-0.002537	2	-1.49943e-05	1.14639e-06
2	1	0	0	1	392.946	-0.44839	-0.448575	-0.00249586	2	-1.50267e-05	1.11958e-06
2	1	0	1	1	392.959	-0.445036	-0.44524	-0.00246587	2	-1.50593e-05	1.09791e-06
2	1	0	1	1	392.972	-0.441737	-0.441934	-0.00243011	2	-1.50908e-05	1.07395e-06
2	1	0	0	1	392.986	-0.438389	-0.4386	-0.00239598	2	-1.51224e-05	1.05088e-06
2	1	0	1	1	392.999	-0.43504	-0.435258	-0.00236218	2	-1.51536e-05	1.02816e-06
2	1	0	1	1	393.012	-0.431741	-0.431941	-0.00232761	2	-1.51838e-05	1.00539e-06
2	1	0	0	1	393.026	-0.428392	-0.428596	-0.00229876	2	-1.5214e-05	9.85238e-07
2	1	0	1	1	393.039	-0.425044	-0.425258	-0.00226664	2	-1.52439e-05	9.63906e-07
2	1	0	1	1	393.052	-0.421745	-0.421979	-0.00223127	2	-1.52729e-05	9.41548e-07
2	1	0	0	1	393.066	-0.418396	-0.418617	-0.00220207	2	-1.53018e-05	9.21822e-07
2	1	0	1	1	393.079	-0.415048	-0.415271	-0.00216623	2	-1.53304e-05	8.99573e-07
2	1	0	1	1	393.092	-0.411749	-0.411962	-0.00213741	2	-1.5358e-05	8.80533e-07
2	1	0	0	1	393.106	-0.4084	-0.408604	-0.00210751	2	-1.53857e-05	8.61136e-07
2	1	0	1	1	393.119	-0.405068	-0.405277	-0.0020739	2	-1.54128e-05	8.40505e-07
2	1	0	1	1	393.132	-0.401736	-0.401958	-0.00204684	2	-1.54395e-05	8.22744e-07
2	1	0	0	1	393.146	-0.398387	-0.398623	-0.00201865	2	-1.5466e-05	8.04679e-07
2	1	0	0	1	393.159	-0.395089	-0.395311	-0.00198534	2	-1.54917e-05	7.84828e-07
2	1	0	1	1	393.172	-0.39174	-0.39196	-0.00195285	2	-1.55173e-05	7.65438e-07
2	1	0	0	1	393.186	-0.388391	-0.388612	-0.001928	2	-1.55426e-05	7.49243e-07
2	1	0	0	1	393.199	-0.385092	-0.385331	-0.00189864	2	-1.55671e-05	7.31604e-07
2	1	0	1	1	393.212	-0.381744	-0.381955	-0.00186567	2	-1.55916e-05	7.12602e-07
2	1	0	0	1	393.226	-0.378395	-0.378586	-0.00183956	2	-1.56157e-05	6.96432e-07
2	1	0	0	1	393.239	-0.375096	-0.375301	-0.00181036	2	-1.56391e-05	6.79429e-07
2	1	0	1	1	393.252	-0.371747	-0.371938	-0.00178084	2	-1.56624e-05	6.62361e-07
2	1	0	0	1	393.266	-0.368399	-0.36858	-0.00175183	2	-1.56853e-05	6.45691e-07
2	1	0	0	1	393.279	-0.3651	-0.365298	-0.00172699	2	-1.57076e-05	6.30865e-07
2	1	0	1	1	393.292	-0.361746	-0.361933	-0.00169555	2	-1.57297e-05	6.13676e-07
2	1	0	1	1	393.305	-0.358436	-0.358652	-0.00166935	2	-1.57512e-05	5.98714e-07
2	1	0	0	1	393.319	-0.355087	-0.355284	-0.00164051	2	-1.57727e-05	5.82846e-07
2	1	0	1	1	393.332	-0.351738	-0.351947	-0.00161353	2	-1.57938e-05	5.67877e-07
2	1	0	1	1	393.345	-0.34844	-0.348649	-0.00158495	2	-1.58141e-05	5.52593e-07
2	1	0	0	1	393.359	-0.345091	-0.345295	-0.00155693	2	-1.58344e-05	5.37601e-07
2	1	0	1	1	393.372	-0.341742	-0.341962	-0.00152746	2	-1.58544e-05	5.22334e-07
2	1	0	1	1	393.385	-0.338443	-0.338615	-0.00149526	2	-1.58736e-05	5.06318e-07
2	1	0	0	1	393.399	-0.335095	-0.335269	-0.00146966	2	-1.58927e-05	4.92733e-07
2	1	0	1	1	393.412	-0.331746	-0.331923	-0.00143949	2	-1.59115e-05	4.77802e-07
2	1	0	1	1	393.425	-0.328447	-0.328608	-0.00141089	2	-1.59295e-05	4.63629e-07
2	1	0	0	1	393.439	-0.325099	-0.325258	-0.0013825	2	-1.59475e-05	4.49668e-07
2	1	0	1	1	393.452	-0.32175	-0.321913	-0.00135255	2	-1.59651e-05	4.35404e-07
2	1	0	1	1	393.465	-0.318451	-0.318628	-0.0013255	2	-1.59821e-05	4.22342e-07
2	1	0	0	1	393.479	-0.315086	-0.315262	-0.00129271	2	-1.59989e-05	4.07543e-07
2	1	0	0	1	393.492	-0.311787	-0.311965	-0.00126358	2	-1.6015e-05	3.94192e-07
2	1	0	1	1	393.505	-0.308438	-0.308614	-0.00123133	2	-1.6031e-05	3.80006e-07
2	1	0	0	1	393.519	-0.305089	-0.305276	-0.0011977	2	-1.60465e-05	3.65628e-07
2	1	0	0	1	393.532	-0.301791	-0.301955	-0.00116758	2	-1.60614e-05	3.52555e-07
2	1	0	1	1	393.545	-0.298442	-0.298625	-0.00113394	2	-1.60761e-05	3.38624e-07
2	1	0	0	1	393.559	-0.295093	-0.29524	-0.00109461	2	-1.60903e-05	3.23172e-07
2	1	0	0	1	393.572	-0.291795	-0.291952	-0.00106072	2	-1.61038e-05	3.0968e-07
2	1	0	1	1	393.585	-0.288446	-0.288583	-0.00102544	2	-1.6117e-05	2.95926e-07
2	1	0	0	1	393.599	-0.285097	-0.285227	-0.000983116	2	-1.61297e-05	2.80412e-07
2	1	0	0	1	393.612	-0.281798	-0.281936	-0.000948201	2	-1.61417e-05	2.67332e-07
2	1	0	1	1	393.625	-0.27845	-0.278589	-0.000905343	2	-1.61534e-05	2.52218e-07
2	1	0	0	1	393.639	-0.275101	-0.275259	-0.000864175	2	-1.61645e-05	2.37872e-07
2	1	0	0	1	393.652	-0.271786	-0.271944	-0.000814736	2	-1.61749e-05	2.21563e-07
2	1	0	1	1	393.665	-0.268437	-0.268585	-0.000767701	2	-1.61848e-05	2.06193e-07
2	1	0	1	1	393.679	-0.265138	-0.265302	-0.00071812	2	-1.61938e-05	1.90518e-07
2	1	0	0	1	393.692	-0.261789	-0.261944	-0.000662745	2	-1.62023e-05	1.73602e-07
2	1	0	1	1	393.705	-0.258441	-0.258601	-0.000611275	2	-1.62101e-05	1.58077e-07
2	1	0	1	1	393.719	-0.255142	-0.255318	-0.000548562	2	-1.6217e-05	1.40057e-07
2	1	0	0	1	393.732	-0.251793	-0.251966	-0.00048609	2	-1.62232e-05	1.22478e-07
2	1	0	1	1	393.745	-0.248444	-0.248629	-0.000417944	2	-1.62286e-05	1.03913e-07
2	1	0	1	1	393.759	-0.245146	-0.245323	-0.000345206	2	-1.62329e-05	8.4687e-08
2	1	0	0	1	393.772	-0.241797	-0.241973	-0.000265908	2	-1.62362e-05	6.43427e-08
2	1	0	1	1	393.785	-0.238448	-0.238632	-0.000184128	2	-1.62385e-05	4.39388e-08
2	1	0	1	1	393.799	-0.235149	-0.235325	-9.85677e-05	2	-1.62397e-05	2.31954e-08
2	1	0	0	1	393.812	-0.231801	-0.231977	-7.51047e-06	2	-1.62396e-05	1.74225e-09
2	1	0	1	1	393.825	-0.228463	-0.228636	9.7048e-05	2	-1.62383e-05	2.21886e-08
2	1	0	1	1	393.839	-0.225137	-0.225317	0.000197555	2	-1.62356e-05	4.45126e-08
2	1	0	0	1	393.852	-0.221788	-0.22196	0.000313429	2	-1.62314e-05	6.95687e-08
2	1	0	0	1	393.865	-0.218489	-0.218657	0.000429935	2	-1.62257e-05	9.40081e-08
2	1	0	1	1	393.879	-0.21514	-0.215306	0.000559091	2	-1.62183e-05	1.20376e-07
2	1	0	0	1	393.892	-0.211792	-0.211961	0.000694151	2	-1.62092e-05	1.47133e-07
2	1	0	0	1	393.905	-0.208493	-0.208639	0.000836231	2	-1.61984e-05	1.7447e-07
2	1	0	1	1	393.919	-0.205144	-0.205299	0.000982813	2	-1.61854e-05	2.0177e-07
2	1	0	0	1	393.932	-0.201796	-0.201954	0.00114083	2	-1.61705e-05	2.30395e-07
2	1	0	0	1	393.945	-0.198497	-0.198637	0.00130578	2	-1.61536e-05	2.59377e-07
2	1	0	1	1	393.959	-0.195148	-0.195299	0.00147128	2	-1.61342e-05	2.8734e-07
2	1	0	0	1	393.972	-0.191799	-0.191952	0.00165273	2	-1.61125e-05	3.17245e-07
2	1	0	0	1	393.985	-0.188501	-0.188675	0.00182199	2	-1.60889e-05	3.43763e-07
2	1	0	1	1	393.999	-0.185141	-0.185326	0.00201443	2	-1.60624e-05	3.73327e-07
2	1	0	1	1	394.012	-0.181836	-0.181991	0.00220097	2	-1.60338e-05	4.00556e-07
2	1	0	0	1	394.025	-0.178488	-0.178647	0.0023789	2	-1.60024e-05	4.24984e-07
2	1	0	1	1	394.039	-0.175139	-0.175286	0.00256497	2	-1.59685e-05	4.49603e-07
2	1	0	1	1	394.052	-0.17184	-0.172002	0.00274085	2	-1.59327e-05	4.71432e-07
2	1	0	0	1	394.065	-0.168492	-0.168654	0.00290421	2	-1.58941e-05	4.89806e-07
2	1	0	1	1	394.079	-0.165143	-0.165282	0.00306613	2	-1.58533e-05	5.06776e-07
2	1	0	1	1	394.092	-0.161844	-0.162002	0.0032041	2	-1.58112e-05	5.1907e-07
2	1	0	0	1	394.105	-0.158495	-0.158637	0.00332837	2	-1.57667e-05	5.28002e-07
2	1	0	1	1	394.119	-0.155147	-0.155278	0.00344483	2	-1.57206e-05	5.34905e-07
2	1	0	1	1	394.132	-0.151848	-0.151988	0.00352659	2	-1.56738e-05	5.36001e-07
2	1	0	0	1	394.145	-0.148499	-0.148649	0.00360748	2	-1.56253e-05	5.36249e-07
2	1	0	1	1	394.159	-0.14515	-0.145298	0.00365598	2	-1.55759e-05	5.31207e-07
2	1	0	1	1	394.172	-0.141841	-0.142009	0.0036922	2	-1.55267e-05	5.24326e-07
2	1	0	0	1	394.185	-0.138486	-0.138633	0.00369695	2	-1.54765e-05	5.12519e-07
2	1	0	0	1	394.198	-0.135188	-0.135331	0.00368767	2	-1.5427e-05	4.99058e-07
2	1	0	1	1	394.212	-0.131839	-0.131973	0.00365681	2	-1.53771e-05	4.82602e-07
2	1	0	0	1	394.225	-0.12849	-0.128643	0.00362144	2	-1.53276e-05	4.65874e-07
2	1	0	0	1	394.238	-0.125191	-0.125329	0.00357071	2	-1.52794e-05	4.47516e-07
2	1	0	1	1	394.252	-0.121843	-0.12197	0.00350419	2	-1.52313e-05	4.27405e-07
2	1	0	0	1	394.265	-0.118494	-0.118613	0.00343416	2	-1.51841e-05	4.07335e-07
2	1	0	0	1	394.278	-0.115195	-0.115306	0.0033584	2	-1.51386e-05	3.87244e-07
2	1	0	1	1	394.292	-0.111846	-0.111952	0.00327355	2	-1.50935e-05	3.66481e-07
2	1	0	0	1	394.305	-0.108498	-0.108621	0.00319479	2	-1.50494e-05	3.47021e-07
2	1	0	0	1	394.318	-0.105199	-0.105326	0.00310823	2	-1.50072e-05	3.27377e-07
2	1	0	1	1	394.332	-0.10185	-0.101976	0.00303071	2	-1.49653e-05	3.09059e-07
2	1	0	0	1	394.345	-0.0985182	-0.0986506	0.00294809	2	-1.49249e-05	2.90831e-07
2	1	0	0	1	394.358	-0.0951862	-0.0953057	0.00287741	2	-1.48854e-05	2.74233e-07
2	1	0	1	1	394.372	-0.0918374	-0.0919681	0.00280047	2	-1.48467e-05	2.57554e-07
2	1	0	1	1	394.385	-0.0885387	-0.0886645	0.00272942	2	-1.48095e-05	2.42002e-07
2	1	0	0	1	394.398	-0.08519	-0.0853292	0.00266578	2	-1.47726e-05	2.27469e-07
2	1	0	1	1	394.412	-0.0818412	-0.0819893	0.00260352	2	-1.47366e-05	2.13461e-07
2	1	0	1	1	394.425	-0.0785425	-0.0786905	0.00255036	2	-1.47019e-05	2.00689e-07
2	1	0	0	1	394.438	-0.0751938	-0.0753456	0.00249328	2	-1.46674e-05	1.87858e-07
2	1	0	1	1	394.452	-0.0718451	-0.0719821	0.00244629	2	-1.46337e-05	1.76089e-07
2	1	0	1	1	394.465	-0.0685463	-0.0686928	0.00239499	2	-1.4601e-05	1.64519e-07
2	1	0	0	1	394.478	-0.0651976	-0.0653333	0.00234997	2	-1.45685e-05	1.53531e-07
2	1	0	1	1	394.492	-0.0618489	-0.0620048	0.00230474	2	-1.45366e-05	1.42905e-07
2	1	0	1	1	394.505	-0.0585501	-0.0587156	0.00226737	2	-1.45057e-05	1.3313e-07
2	1	0	0	1	394.518	-0.0551959	-0.0553441	0.00223153	2	-1.44749e-05	1.23502e-07
2	1	0	0	1	394.532	-0.051886	-0.0520486	0.00220048	2	-1.44449e-05	1.14532e-07
2	1	0	1	1	394.545	-0.0485373	-0.0486901	0.00216752	2	-1.44149e-05	1.05537e-07
2	1	0	0	1	394.558	-0.0451886	-0.0453436	0.00213745	2	-1.43854e-05	9.69197e-08
2	1	0	0	1	394.572	-0.0418898	-0.042038	0.00211204	2	-1.43566e-05	8.87861e-08
2	1	0	1	1	394.585	-0.0385411	-0.0386839	0.00208267	2	-1.43278e-05	8.05658e-08
2	1	0	0	1	394.598	-0.0351924	-0.0353339	0.00205815	2	-1.42993e-05	7.27226e-08
2	1	0	0	1	394.612	-0.0318936	-0.0320308	0.00203825	2	-1.42715e-05	6.52869e-08
2	1	0	1	1	394.625	-0.0285449	-0.0286771	0.00201654	2	-1.42437e-05	5.78285e-08
2	1	0	0	1	394.638	-0.0251962	-0.0253296	0.0019969	2	-1.42161e-05	5.05807e-08
2	1	0	0	1	394.652	-0.0218974	-0.0220025	0.00197934	2	-1.41891e-05	4.35505e-08
2	1	0	1	1	394.665	-0.0185487	-0.0186836	0.00195631	2	-1.4162e-05	3.6551e-08
2	1	0	0	1	394.678	-0.0152	-0.0153412	0.00194439	2	-1.41352e-05	2.98294e-08
2	1	0	0	1	394.692	-0.0118957	-0.0120357	0.00193179	2	-1.41089e-05	2.32505e-08
2	1	0	1	1	394.705	-0.00853586	-0.00868058	0.00191416	2	-1.40824e-05	1.66161e-08
2	1	0	1	1	394.718	-0.00523712	-0.00537853	0.00189849	2	-1.40565e-05	1.02111e-08
2	1	0	0	1	394.732	-0.0018884	-0.00204119	0.00188724	2	-1.40304e-05	3.85221e-09
2	1	0	1	1	394.745	0.0014659	0.00132025	0.00187766	2	-1.40044e-05	2.47899e-09
2	1	0	1	1	394.758	0.00475907	0.00464001	0.00186494	2	-1.3979e-05	8.65334e-09
2	1	0	0	1	394.772	0.00810779	0.00799029	0.00185613	2	-1.39534e-05	1.4831e-08
2	1	0	1	1	394.785	0.0114565	0.011344	0.00184307	2	-1.39279e-05	2.09078e-08
2	1	0	1	1	394.798	0.0147553	0.0146605	0.00183894	2	-1.39028e-05	2.69597e-08
2	1	0	0	1	394.812	0.018104	0.0179995	0.0018278	2	-1.38776e-05	3.28994e-08
2	1	0	1	1	394.825	0.0214527	0.021361	0.0018176	2	-1.38524e-05	3.88258e-08
2	1	0	1	1	394.838	0.0247514	0.0246565	0.00181227	2	-1.38278e-05	4.46842e-08
2	1	0	0	1	394.852	0.0281002	0.0279819	0.00180402	2	-1.38028e-05	5.048e-08
2	1	0	1	1	394.865	0.0314266	0.0313299	0.0017986	2	-1.37781e-05	5.63501e-08
2	1	0	1	1	394.878	0.0347643	0.0346633	0.00179509	2	-1.37535e-05	6.22235e-08
2	1	0	0	1	394.892	0.038113	0.0380196	0.00179153	2	-1.37288e-05	6.81135e-08
2	1	0	0	1	394.905	0.0414117	0.0412995	0.00178408	2	-1.37045e-05	7.36814e-08
2	1	0	1	1	394.918	0.0447605	0.0446605	0.00178061	2	-1.36799e-05	7.9523e-08
2	1	0	0	1	394.932	0.0481092	0.0480112	0.0017778	2	-1.36553e-05	8.53541e-08
2	1	0	0	1	394.945	0.0514079	0.0512987	0.00177089	2	-1.36312e-05	9.08442e-08
2	1	0	1	1	394.958	0.0547566	0.0546734	0.00177181	2	-1.36067e-05	9.68709e-08
2	1	0	0	1	394.972	0.0581054	0.0580223	0.0017689	2	-1.35823e-05	1.02635e-07
2	1	0	0	1	394.985	0.0614041	0.0613271	0.00176289	2	-1.35583e-05	1.08113e-07
2	1	0	1	1	394.998	0.0647528	0.0646686	0.0017587	2	-1.35339e-05	1.13733e-07
2	1	0	0	1	395.012	0.0681016	0.0680147	0.00176069	2	-1.35096e-05	1.19753e-07
2	1	0	0	1	395.025	0.0714003	0.0713059	0.00175952	2	-1.34857e-05	1.25464e-07
2	1	0	1	1	395.038	0.074749	0.074647	0.00175779	2	-1.34614e-05	1.31213e-07
2	1	0	1	1	395.051	0.0780644	0.0779908	0.00175952	2	-1.34375e-05	1.37227e-07
2	1	0	0	1	395.065	0.0814131	0.081317	0.0017559	2	-1.34132e-05	1.42785e-07
2	1	0	1	1	395.078	0.0847619	0.0846657	0.00175452	2	-1.33889e-05	1.48548e-07
2	1	0	1	1	395.091	0.0880606	0.0879516	0.00175533	2	-1.3365e-05	1.54384e-07
2	1	0	0	1	395.105	0.0914093	0.0913046	0.00175619	2	-1.33408e-05	1.60348e-07
2	1	0	1	1	395.118	0.094758	0.0946408	0.0017565	2	-1.33165e-05	1.66237e-07
2	1	0	1	1	395.131	0.0980568	0.0979442	0.00175711	2	-1.32926e-05	1.72099e-07
2	0	0	0	1	395.139	0.0999061	0.0998299	0.00173155	2	-1.32785e-05	1.7286e-07
2	0	0	0	1	395.146	0.0980901	0.0979553	0.00121111	2	-1.32699e-05	1.18635e-07
2	0	0	1	1	395.16	0.0947414	0.0946019	0.00102228	2	-1.32557e-05	9.67095e-08
2	0	0	0	1	395.173	0.0913927	0.0912527	0.00091739	2	-1.32435e-05	8.37143e-08
2	0	0	0	1	395.186	0.0880939	0.0879362	0.000834768	2	-1.32327e-05	7.34063e-08
2	0	0	1	1	395.2	0.0847452	0.0845972	0.000761023	2	-1.32228e-05	6.43804e-08
2	0	0	0	1	395.213	0.0813965	0.081271	0.000696923	2	-1.32137e-05	5.66396e-08
2	0	0	0	1	395.226	0.0780977	0.0779873	0.000639443	2	-1.32056e-05	4.98684e-08
2	0	0	1	1	395.24	0.0747324	0.0745977	0.00057891	2	-1.31983e-05	4.31853e-08
2	0	0	1	1	395.253	0.0714336	0.0713146	0.000528877	2	-1.31917e-05	3.77166e-08
2	0	0	0	1	395.266	0.0680849	0.0679619	0.000481726	2	-1.31857e-05	3.27391e-08
2	0	0	1	1	395.28	0.0647362	0.0646233	0.000435471	2	-1.31803e-05	2.81416e-08
2	0	0	1	1	395.293	0.0614374	0.0613055	0.000387846	2	-1.31756e-05	2.37771e-08
2	0	0	0	1	395.306	0.0580887	0.0579707	0.000345774	2	-1.31714e-05	2.00448e-08
2	0	0	1	1	395.32	0.05474	0.0546206	0.000301321	2	-1.31678e-05	1.64583e-08
2	0	0	1	1	395.333	0.0514413	0.0513176	0.000262515	2	-1.31648e-05	1.34716e-08
2	0	0	0	1	395.346	0.0480925	0.0479566	0.000222673	2	-1.31623e-05	1.06786e-08
2	0	0	1	1	395.36	0.0447438	0.0446092	0.000183244	2	-1.31603e-05	8.17438e-09
2	0	0	1	1	395.373	0.0414451	0.0412822	0.000146466	2	-1.31589e-05	6.04643e-09
2	0	0	0	1	395.386	0.0380963	0.0379519	0.000112065	2	-1.31579e-05	4.25307e-09
2	0	0	1	1	395.4	0.0347476	0.034601	7.48226e-05	2	-1.31574e-05	2.58894e-09
2	0	0	1	1	395.413	0.0314322	0.0312819	3.94399e-05	2	-1.31574e-05	1.23375e-09
2	0	0	0	1	395.426	0.0280835	0.0279324	6.46832e-06	2	-1.31578e-05	1.80675e-10
2	0	0	0	1	395.44	0.0247848	0.0246393	-2.51535e-05	2	-1.31586e-05	6.19764e-10
2	0	0	1	1	395.468	0.0176253	0.0174313	-0.000111587	2	-1.31629e-05	1.94511e-09
2	0	0	1	1	395.497	0.0104402	0.0101989	-0.000214508	2	-1.31682e-05	2.18775e-09
2	0	0	0	1	395.51	0.00709151	0.00683829	-0.00024347	2	-1.31714e-05	1.66492e-09
2	0	0	0	1	395.524	0.00379277	0.0035454	-0.000274823	2	-1.31749e-05	9.74356e-10
2	0	0	1	1	395.537	0.000444049	0.000153212	-0.000307925	2	-1.31788e-05	4.71777e-11
2	0	0	0	1	395.55	-0.00290467	-0.00317869	-0.000334353	2	-1.31832e-05	1.06281e-09
2	0	0	0	1	395.564	-0.00620342	-0.00648109	-0.000363791	2	-1.31879e-05	2.35776e-09
2	0	0	1	1	395.577	-0.00955214	-0.00981405	-0.000393803	2	-1.31931e-05	3.8648e-09
2	0	0	1	1	395.59	-0.0128675	-0.0131488	-0.000424709	2	-1.31985e-05	5.58441e-09
2	0	0	0	1	395.604	-0.0162163	-0.0165159	-0.000449926	2	-1.32045e-05	7.43092e-09
2	0	0	1	1	395.617	-0.019565	-0.0198439	-0.000479079	2	-1.32108e-05	9.50682e-09
2	0	0	1	1	395.63	-0.0228637	-0.0231317	-0.000506897	2	-1.32174e-05	1.17254e-08
2	0	0	0	1	395.644	-0.0262125	-0.0264629	-0.000534736	2	-1.32244e-05	1.41507e-08
2	0	0	1	1	395.657	-0.0295612	-0.0298359	-0.000565531	2	-1.32319e-05	1.68731e-08
2	0	0	1	1	395.67	-0.0328599	-0.0331323	-0.000592375	2	-1.32396e-05	1.96267e-08
2	0	0	0	1	395.684	-0.0362086	-0.0364742	-0.000619128	2	-1.32478e-05	2.25822e-08
2	0	0	1	1	395.697	-0.0395574	-0.0398226	-0.000648466	2	-1.32564e-05	2.58236e-08
2	0	0	1	1	395.71	-0.0428561	-0.0431307	-0.00067733	2	-1.32652e-05	2.92137e-08
2	0	0	0	1	395.724	-0.0462048	-0.0464947	-0.000703608	2	-1.32745e-05	3.2714e-08
2	0	0	1	1	395.737	-0.0495536	-0.049829	-0.000733395	2	-1.32842e-05	3.65443e-08
2	0	0	1	1	395.75	-0.0528523	-0.0531484	-0.000760949	2	-1.32942e-05	4.04432e-08
2	0	0	0	1	395.764	-0.0562177	-0.0565181	-0.000791721	2	-1.33047e-05	4.47466e-08
2	0	0	0	1	395.777	-0.0595164	-0.0598097	-0.000817074	2	-1.33153e-05	4.88689e-08
2	0	0	1	1	395.79	-0.0628652	-0.0631466	-0.000843239	2	-1.33265e-05	5.32476e-08
2	0	0	0	1	395.804	-0.0662139	-0.0665082	-0.000876188	2	-1.33381e-05	5.82737e-08
2	0	0	0	1	395.817	-0.0695126	-0.0697908	-0.000901926	2	-1.335e-05	6.29462e-08
2	0	0	1	1	395.83	-0.0728613	-0.0731491	-0.000935171	2	-1.33623e-05	6.84069e-08
2	0	0	0	1	395.844	-0.0762101	-0.0765091	-0.000965181	2	-1.33752e-05	7.38451e-08
2	0	0	0	1	395.857	-0.0795088	-0.0797957	-0.000995178	2	-1.33882e-05	7.9411e-08
2	0	0	0	1	395.901	-0.0905046	-0.0906727	-0.00105381	2	-1.34337e-05	9.55518e-08
2	0	0	1	1	395.914	-0.0938533	-0.0940213	-0.00109196	2	-1.34488e-05	1.02668e-07
2	0	0	0	1	395.927	-0.0971797	-0.0973549	-0.00113076	2	-1.34644e-05	1.10085e-07
2	0	0	0	1	395.941	-0.100517	-0.100678	-0.00116664	2	-1.34804e-05	1.17455e-07
2	0	0	1	1	395.954	-0.103866	-0.104022	-0.00120908	2	-1.34971e-05	1.2577e-07
2	0	0	1	1	395.967	-0.107165	-0.107331	-0.00125455	2	-1.3514e-05	1.34652e-07
2	0	0	0	1	395.981	-0.110514	-0.110678	-0.00129905	2	-1.35319e-05	1.43776e-07
2	0	0	1	1	395.994	-0.113862	-0.114027	-0.00135099	2	-1.35504e-05	1.54049e-07
2	0	0	1	1	396.007	-0.117161	-0.117326	-0.00140485	2	-1.35693e-05	1.64825e-07
2	0	0	0	1	396.021	-0.12051	-0.120676	-0.00145886	2	-1.35892e-05	1.76049e-07
2	0	0	1	1	396.034	-0.123859	-0.124033	-0.00152124	2	-1.36099e-05	1.88684e-07
2	0	0	1	1	396.047	-0.127157	-0.127343	-0.0015898	2	-1.36312e-05	2.02449e-07
2	0	0	0	1	396.061	-0.130506	-0.130712	-0.0016594	2	-1.36537e-05	2.16905e-07
2	0	0	1	1	396.074	-0.133855	-0.134024	-0.00173168	2	-1.36771e-05	2.32087e-07
2	0	0	1	1	396.087	-0.137153	-0.137342	-0.00181648	2	-1.37013e-05	2.49478e-07
2	0	0	0	1	396.101	-0.140502	-0.140694	-0.00190325	2	-1.3727e-05	2.67776e-07
2	0	0	0	1	396.114	-0.143818	-0.144009	-0.0019948	2	-1.37534e-05	2.87268e-07
2	0	0	1	1	396.127	-0.147166	-0.147364	-0.00209668	2	-1.37816e-05	3.08975e-07
2	0	0	0	1	396.141	-0.150515	-0.150686	-0.00220066	2	-1.38111e-05	3.31609e-07
2	0	0	0	1	396.154	-0.153814	-0.15399	-0.00231638	2	-1.38417e-05	3.56699e-07
2	0	0	1	1	396.167	-0.157163	-0.15733	-0.00243836	2	-1.38743e-05	3.83627e-07
2	0	0	0	1	396.181	-0.160511	-0.1607	-0.00257041	2	-1.39086e-05	4.13066e-07
2	0	0	0	1	396.194	-0.16381	-0.164004	-0.0027056	2	-1.39442e-05	4.43729e-07
2	0	0	1	1	396.207	-0.167159	-0.167353	-0.00284775	2	-1.39821e-05	4.76579e-07
2	0	0	0	1	396.221	-0.170507	-0.170712	-0.00300734	2	-1.40221e-05	5.13388e-07
2	0	0	0	1	396.234	-0.173806	-0.174019	-0.00316355	2	-1.40636e-05	5.50518e-07
2	0	0	1	1	396.247	-0.177155	-0.177359	-0.00333103	2	-1.41079e-05	5.90787e-07
2	0	0	0	1	396.261	-0.180504	-0.180709	-0.00350891	2	-1.41545e-05	6.34091e-07
2	0	0	0	1	396.274	-0.183802	-0.184006	-0.00369068	2	-1.42027e-05	6.79108e-07
2	0	0	1	1	396.287	-0.187168	-0.187379	-0.00387513	2	-1.42542e-05	7.26119e-07
2	0	0	1	1	396.301	-0.190466	-0.190651	-0.00405979	2	-1.43074e-05	7.74003e-07
2	0	0	0	1	396.314	-0.193815	-0.194013	-0.00425358	2	-1.43638e-05	8.25249e-07
2	0	0	1	1	396.327	-0.197164	-0.197361	-0.00443965	2	-1.44228e-05	8.76216e-07
2	0	0	1	1	396.341	-0.200463	-0.200663	-0.00463438	2	-1.44835e-05	9.29948e-07
2	0	0	0	1	396.354	-0.203811	-0.204008	-0.00481908	2	-1.45476e-05	9.83129e-07
2	0	0	1	1	396.367	-0.20716	-0.207371	-0.00499156	2	-1.46141e-05	1.03511e-06
2	0	0	1	1	396.381	-0.210459	-0.210652	-0.00516807	2	-1.46819e-05	1.08866e-06
2	0	0	0	1	396.394	-0.213808	-0.214035	-0.00532787	2	-1.4753e-05	1.14035e-06
2	0	0	1	1	396.407	-0.217156	-0.217371	-0.00547632	2	-1.48261e-05	1.1904e-06
2	0	0	1	1	396.421	-0.220455	-0.220678	-0.00560124	2	-1.49e-05	1.23607e-06
2	0	0	0	1	396.434	-0.223804	-0.224035	-0.00571544	2	-1.49765e-05	1.28046e-06
2	0	0	1	1	396.447	-0.227153	-0.227381	-0.00580501	2	-1.50544e-05	1.31995e-06
2	0	0	1	1	396.461	-0.230468	-0.230693	-0.00587682	2	-1.51323e-05	1.35574e-06
2	0	0	0	1	396.474	-0.233817	-0.234022	-0.00593352	2	-1.52121e-05	1.38857e-06
2	0	0	0	1	396.487	-0.237115	-0.237337	-0.00596608	2	-1.52914e-05	1.41597e-06
2	0	0	1	1	396.501	-0.240464	-0.240664	-0.00598814	2	-1.53722e-05	1.44113e-06
2	0	0	0	1	396.514	-0.243813	-0.24404	-0.00599747	2	-1.54532e-05	1.46362e-06
2	0	0	0	1	396.527	-0.247112	-0.247327	-0.00598253	2	-1.5533e-05	1.47964e-06
2	0	0	1	1	396.541	-0.25046	-0.250679	-0.00595943	2	-1.56137e-05	1.4939e-06
2	0	0	0	1	396.554	-0.253809	-0.254043	-0.00592739	2	-1.56941e-05	1.50581e-06
2	0	0	0	1	396.567	-0.257108	-0.257306	-0.00588441	2	-1.57727e-05	1.51409e-06
2	0	0	1	1	396.581	-0.260456	-0.260644	-0.00583038	2	-1.58519e-05	1.51966e-06
2	0	0	0	1	396.594	-0.263805	-0.263992	-0.00577598	2	-1.59304e-05	1.52481e-06
2	0	0	0	1	396.607	-0.267104	-0.267323	-0.00572278	2	-1.6007e-05	1.52983e-06
2	0	0	1	1	396.621	-0.270453	-0.270659	-0.00565268	2	-1.60839e-05	1.52995e-06
2	0	0	0	1	396.634	-0.27379	-0.273974	-0.00559903	2	-1.61594e-05	1.53399e-06
2	0	0	0	1	396.647	-0.277117	-0.277309	-0.00552719	2	-1.62341e-05	1.53274e-06
2	0	0	1	1	396.661	-0.280466	-0.280649	-0.00546207	2	-1.63085e-05	1.53293e-06
2	0	0	1	1	396.674	-0.283764	-0.283946	-0.00539628	2	-1.63808e-05	1.53225e-06
2	0	0	0	1	396.687	-0.287113	-0.2873	-0.0053411	2	-1.64535e-05	1.5345e-06
2	0	0	1	1	396.701	-0.290462	-0.290652	-0.00527401	2	-1.65253e-05	1.5329e-06
2	0	0	1	1	396.714	-0.29376	-0.293946	-0.00522306	2	-1.65953e-05	1.5353e-06
2	0	0	0	1	396.727	-0.297109	-0.297315	-0.00517216	2	-1.66656e-05	1.53776e-06
2	0	0	1	1	396.741	-0.300458	-0.300677	-0.00511229	2	-1.67352e-05	1.53715e-06
2	0	0	1	1	396.754	-0.303757	-0.303964	-0.00506434	2	-1.68031e-05	1.53938e-06
2	0	0	0	1	396.767	-0.307105	-0.307323	-0.00502152	2	-1.68714e-05	1.54323e-06
2	0	0	1	1	396.781	-0.310454	-0.310671	-0.00497787	2	-1.69391e-05	1.54648e-06
2	0	0	1	1	396.794	-0.313753	-0.313972	-0.00493617	2	-1.70053e-05	1.54982e-06
2	0	0	0	1	396.807	-0.317113	-0.317359	-0.00489816	2	-1.70719e-05	1.55448e-06
2	0	0	0	1	396.82	-0.320417	-0.320614	-0.00485702	2	-1.7137e-05	1.55723e-06
2	0	0	1	1	396.834	-0.323766	-0.323965	-0.00482711	2	-1.72026e-05	1.56381e-06
2	0	0	0	1	396.847	-0.327114	-0.3273	-0.0047992	2	-1.72678e-05	1.57078e-06
2	0	0	0	1	396.86	-0.330413	-0.330614	-0.00477114	2	-1.73316e-05	1.57741e-06
2	0	0	1	1	396.874	-0.333762	-0.333999	-0.0047458	2	-1.73961e-05	1.58509e-06
2	0	0	0	1	396.887	-0.337111	-0.337309	-0.00472331	2	-1.74603e-05	1.59322e-06
2	0	0	0	1	396.9	-0.340409	-0.340644	-0.00470453	2	-1.75232e-05	1.60257e-06
2	0	0	1	1	396.914	-0.343758	-0.344016	-0.00468452	2	-1.75868e-05	1.61155e-06
2	0	0	0	1	396.927	-0.347107	-0.347333	-0.00466295	2	-1.76501e-05	1.6196e-06
2	0	0	0	1	396.94	-0.350406	-0.350646	-0.00465297	2	-1.77123e-05	1.63154e-06
2	0	0	1	1	396.954	-0.353754	-0.354002	-0.00463571	2	-1.77753e-05	1.64105e-06
2	0	0	0	1	396.967	-0.357103	-0.357346	-0.00462521	2	-1.78381e-05	1.6528e-06
2	0	0	0	1	396.98	-0.360407	-0.36064	-0.00461269	2	-1.78997e-05	1.66352e-06
2	0	0	1	1	396.994	-0.363767	-0.363981	-0.00460295	2	-1.79622e-05	1.67539e-06
2	0	0	1	1	397.007	-0.367066	-0.367278	-0.00459904	2	-1.80237e-05	1.68913e-06
2	0	0	0	1	397.02	-0.370415	-0.370634	-0.00459384	2	-1.8086e-05	1.70263e-06
2	0	0	1	1	397.034	-0.373763	-0.373996	-0.00459101	2	-1.81483e-05	1.71702e-06
2	0	0	1	1	397.047	-0.377062	-0.377294	-0.00458802	2	-1.82095e-05	1.73103e-06
2	0	0	0	1	397.06	-0.380411	-0.380653	-0.00458633	2	-1.82717e-05	1.7458e-06
2	0	0	1	1	397.074	-0.383759	-0.384007	-0.00458526	2	-1.83339e-05	1.76077e-06
2	0	0	1	1	397.087	-0.387058	-0.387316	-0.00458407	2	-1.83951e-05	1.77549e-06
2	0	0	0	1	397.1	-0.390407	-0.390632	-0.0045857	2	-1.84572e-05	1.79132e-06
2	0	0	1	1	397.114	-0.393756	-0.394002	-0.00458773	2	-1.85194e-05	1.80757e-06
2	0	0	1	1	397.127	-0.397054	-0.397299	-0.00458529	2	-1.85807e-05	1.82173e-06
2	0	0	0	1	397.14	-0.400403	-0.40064	-0.00458671	2	-1.86429e-05	1.83762e-06
2	0	0	1	1	397.154	-0.40373	-0.403972	-0.0045966	2	-1.87047e-05	1.8569e-06
2	0	0	1	1	397.167	-0.407067	-0.407309	-0.00460414	2	-1.87666e-05	1.87531e-06
2	0	0	0	1	397.18	-0.410416	-0.410643	-0.00460819	2	-1.8829e-05	1.89232e-06
2	0	0	0	1	397.194	-0.413715	-0.413954	-0.00461537	2	-1.88905e-05	1.91055e-06
2	0	0	1	1	397.207	-0.417063	-0.417299	-0.00461343	2	-1.89531e-05	1.92518e-06
2	0	0	0	1	397.22	-0.420412	-0.420636	-0.00462552	2	-1.90157e-05	1.94566e-06
2	0	0	0	1	397.234	-0.423711	-0.423962	-0.00463633	2	-1.90776e-05	1.96563e-06
2	0	0	1	1	397.247	-0.42706	-0.427276	-0.00463892	2	-1.91405e-05	1.9821e-06
2	0	0	0	1	397.26	-0.430408	-0.430625	-0.00465362	2	-1.92035e-05	2.00396e-06
2	0	0	0	1	397.274	-0.433707	-0.433915	-0.00466171	2	-1.92657e-05	2.02278e-06
2	0	0	1	1	397.287	-0.437056	-0.437286	-0.00467441	2	-1.9329e-05	2.04405e-06
2	0	0	0	1	397.3	-0.440405	-0.440618	-0.00468657	2	-1.93924e-05	2.06499e-06
2	0	0	0	1	397.314	-0.443703	-0.443933	-0.00469854	2	-1.94551e-05	2.08584e-06
2	0	0	1	1	397.327	-0.447052	-0.447279	-0.00470671	2	-1.95189e-05	2.10521e-06
2	0	0	1	1	397.34	-0.450367	-0.450569	-0.00472409	2	-1.95818e-05	2.12853e-06
2	0	0	0	1	397.354	-0.453716	-0.453916	-0.00473811	2	-1.96459e-05	2.15071e-06
2	0	0	1	1	397.367	-0.457065	-0.457272	-0.00475348	2	-1.97102e-05	2.17364e-06
2	0	0	1	1	397.38	-0.460364	-0.460572	-0.00476836	2	-1.97738e-05	2.19617e-06
2	0	0	0	1	397.394	-0.463712	-0.463933	-0.00477891	2	-1.98385e-05	2.21709e-06
2	0	0	1	1	397.407	-0.467061	-0.467283	-0.00480644	2	-1.99035e-05	2.24596e-06
2	0	0	1	1	397.42	-0.47036	-0.470597	-0.00481506	2	-1.99677e-05	2.26595e-06
2	0	0	0	1	397.434	-0.473709	-0.47394	-0.00483199	2	-2.00331e-05	2.29007e-06
2	0	0	1	1	397.447	-0.477057	-0.477288	-0.00485382	2	-2.00987e-05	2.31667e-06
2	0	0	1	1	397.46	-0.480356	-0.48059	-0.00487065	2	-2.01636e-05	2.34079e-06
2	0	0	0	1	397.474	-0.483705	-0.483936	-0.00489355	2	-2.02298e-05	2.36817e-06
2	0	0	1	1	397.487	-0.487053	-0.487298	-0.00491534	2	-2.02962e-05	2.39523e-06
2	0	0	1	1	397.5	-0.490352	-0.490583	-0.00493483	2	-2.0362e-05	2.42094e-06
2	0	0	0	1	397.514	-0.493718	-0.493938	-0.00496038	2	-2.0429e-05	2.45012e-06
2	0	0	0	1	397.527	-0.497016	-0.497242	-0.00498075	2	-2.04953e-05	2.47664e-06
2	0	0	1	1	397.54	-0.500365	-0.500591	-0.00500801	2	-2.0563e-05	2.50696e-06
2	0	0	0	1	397.554	-0.503714	-0.503945	-0.00503332	2	-2.06309e-05	2.53652e-06
2	0	0	0	1	397.567	-0.507012	-0.507252	-0.00505703	2	-2.06983e-05	2.56519e-06
2	0	0	1	1	397.58	-0.510361	-0.510587	-0.00508625	2	-2.07669e-05	2.59698e-06
2	0	0	0	1	397.594	-0.51371	-0.513948	-0.00511525	2	-2.0836e-05	2.62897e-06
2	0	0	0	1	397.607	-0.517009	-0.517237	-0.00513938	2	-2.09044e-05	2.65828e-06
2	0	0	1	1	397.62	-0.520357	-0.520592	-0.00517393	2	-2.09743e-05	2.69351e-06
2	0	0	0	1	397.634	-0.523706	-0.523942	-0.00520451	2	-2.10446e-05	2.72686e-06
2	0	0	0	1	397.647	-0.527005	-0.527244	-0.00523535	2	-2.11142e-05	2.76031e-06
2	0	0	1	1	397.66	-0.530354	-0.53059	-0.00527492	2	-2.11854e-05	2.79882e-06
2	0	0	0	1	397.674	-0.533702	-0.533922	-0.00531007	2	-2.1257e-05	2.83516e-06
2	0	0	0	1	397.687	-0.537018	-0.537242	-0.00535173	2	-2.13281e-05	2.87518e-06
2	0	0	1	1	397.7	-0.540366	-0.540582	-0.00538828	2	-2.14008e-05	2.91281e-06
2	0	0	1	1	397.713	-0.543665	-0.543901	-0.00542862	2	-2.14729e-05	2.95263e-06
2	0	0	0	1	397.727	-0.547014	-0.547234	-0.00547051	2	-2.15467e-05	2.99365e-06
2	0	0	1	1	397.74	-0.550363	-0.550596	-0.00551894	2	-2.16211e-05	3.03871e-06
2	0	0	1	1	397.753	-0.553661	-0.553904	-0.00556144	2	-2.16949e-05	3.0805e-06
2	0	0	0	1	397.767	-0.55701	-0.557249	-0.00561759	2	-2.17705e-05	3.13039e-06
2	0	0	1	1	397.78	-0.560359	-0.560595	-0.00566201	2	-2.18468e-05	3.17409e-06
2	0	0	1	1	397.793	-0.563658	-0.563906	-0.00571521	2	-2.19226e-05	3.22285e-06
2	0	0	0	1	397.807	-0.567006	-0.567253	-0.00576919	2	-2.20004e-05	3.27259e-06
2	0	0	1	1	397.82	-0.570355	-0.570606	-0.00582371	2	-2.20788e-05	3.32305e-06
2	0	0	1	1	397.833	-0.573654	-0.573882	-0.00588311	2	-2.21568e-05	3.37621e-06
2	0	0	0	1	397.847	-0.577002	-0.577236	-0.0059474	2	-2.22368e-05	3.43306e-06
2	0	0	1	1	397.86	-0.58034	-0.580566	-0.00601167	2	-2.2317e-05	3.49017e-06
2	0	0	1	1	397.873	-0.583667	-0.583901	-0.00607963	2	-2.23981e-05	3.5499e-06
2	0	0	0	1	397.887	-0.587015	-0.587248	-0.00614167	2	-2.24807e-05	3.60668e-06
2	0	0	0	1	397.9	-0.590314	-0.59055	-0.00621487	2	-2.2563e-05	3.67019e-06
2	0	0	1	1	397.913	-0.593663	-0.593899	-0.00628607	2	-2.26476e-05	3.73329e-06
2	0	0	0	1	397.927	-0.597011	-0.597241	-0.00636369	2	-2.27331e-05	3.80065e-06
2	0	0	0	1	397.935	-0.599161	-0.599424	-0.00642437	2	-2.27884e-05	3.85092e-06
2	0	0	0	1	397.938	-0.599827	-0.600035	-0.00643145	2	-2.28052e-05	3.8591e-06