File: TAP_Report/Data/MB_SHU/100 uM MB 10mM PB Second ITO_08_CV_C01_2.mpt
EC-Lab ASCII FILE
Nb header lines : 53

Cyclic Voltammetry

Run on channel : 1 (SN 0696)
User :
Electrode connection : standard
Ewe ctrl range : min = -10.00 V, max = 10.00 V
Ewe,I filtering : 50 kHz
Channel : Grounded
Acquisition started on : 05/17/2017 12:14:48
Saved on :
	File : 100 uM MB 10mM PB Second ITO_08_CV_C01.mpr
	Directory : \\userfs\st659\w2k\EC-Lab\Data\ITO Characterisation 17-5-17\
	Host : 144.32.136.43
Device : SP-300 (SN 0182)
Address : USB
EC-Lab for windows v10.44 (software)
Internet server v10.44 (firmware)
Command interpretor v10.44 (firmware)
Electrode material :
Initial state :
Electrolyte :
Comments :
Cable : standard
Electrode surface area : 0.001 cm²
Characteristic mass : 0.001 g
Equivalent Weight : 0.000 g/eq.
Density : 0.000 g/cm3
Ei (V)              0.000
vs.                 Eoc
dE/dt               5000.000
dE/dt unit          mV/s
E1 (V)              0.100
vs.                 Ref
Step percent        50
N                   10
E range min (V)     -10.000
E range max (V)     10.000
I Range             Auto
I Range min         Unset
I Range max         Unset
I Range init        Unset
Bandwidth           8
E2 (V)              -0.600
vs.                 Ref
nc cycles           2
Reverse Scan        1
Ef (V)              0.000
vs.                 Eoc

mode	ox/red	error	control changes	counter inc.	time/s	control/V	Ewe/V	<I>/mA	cycle number	(Q-Qo)/C	P/W
2	1	0	0	1	424.74	-0.599161	-0.59947	-0.0346336	2	-3.81714e-06	2.07618e-05
2	1	0	1	1	424.741	-0.593663	-0.593943	-0.0289924	2	-3.84952e-06	1.72198e-05
2	1	0	1	1	424.743	-0.583667	-0.583918	-0.0218293	2	-3.8995e-06	1.27465e-05
2	1	0	1	1	424.745	-0.57367	-0.573928	-0.0169559	2	-3.93774e-06	9.73149e-06
2	1	0	1	1	424.747	-0.563674	-0.563914	-0.0133457	2	-3.96765e-06	7.52585e-06
2	1	0	1	1	424.749	-0.553678	-0.55392	-0.0105586	2	-3.99126e-06	5.84862e-06
2	1	0	1	1	424.751	-0.543682	-0.543887	-0.0082869	2	-4.00985e-06	4.50714e-06
2	1	0	1	1	424.753	-0.533686	-0.53389	-0.00644889	2	-4.02439e-06	3.443e-06
2	1	0	1	1	424.755	-0.523689	-0.523904	-0.004933	2	-4.03561e-06	2.58442e-06
2	1	0	1	1	424.757	-0.513693	-0.513916	-0.0036473	2	-4.04406e-06	1.87441e-06
2	1	0	1	1	424.759	-0.503697	-0.50392	-0.00255175	2	-4.05014e-06	1.28588e-06
2	1	0	1	1	424.761	-0.493701	-0.493921	-0.00160016	2	-4.05419e-06	7.90352e-07
2	1	0	1	1	424.763	-0.483705	-0.483909	-0.000778561	2	-4.05648e-06	3.76753e-07
2	1	0	1	1	424.765	-0.473708	-0.473933	-4.1442e-05	2	-4.05723e-06	1.96408e-08
2	1	0	1	1	424.767	-0.463712	-0.463914	0.000618718	2	-4.05659e-06	2.87032e-07
2	1	0	1	1	424.769	-0.453716	-0.453903	0.00120883	2	-4.0547e-06	5.4869e-07
2	1	0	1	1	424.771	-0.44372	-0.443937	0.00172601	2	-4.05171e-06	7.66238e-07
2	1	0	1	1	424.773	-0.433724	-0.433941	0.0022225	2	-4.04771e-06	9.64435e-07
2	1	0	1	1	424.775	-0.423728	-0.423955	0.00267753	2	-4.04277e-06	1.13515e-06
2	1	0	1	1	424.777	-0.413731	-0.413954	0.00310205	2	-4.03695e-06	1.28411e-06
2	1	0	1	1	424.779	-0.403735	-0.403956	0.00349901	2	-4.03031e-06	1.41345e-06
2	1	0	1	1	424.781	-0.393739	-0.393972	0.00386875	2	-4.02291e-06	1.52418e-06
2	1	0	1	1	424.783	-0.383743	-0.383962	0.00425115	2	-4.01474e-06	1.63228e-06
2	1	0	1	1	424.785	-0.373747	-0.373946	0.00460913	2	-4.00584e-06	1.72357e-06
2	1	0	1	1	424.787	-0.36375	-0.363932	0.00493406	2	-3.99626e-06	1.79566e-06
2	1	0	1	1	424.789	-0.353754	-0.353978	0.00525919	2	-3.98604e-06	1.86163e-06
2	1	0	1	1	424.791	-0.343758	-0.343968	0.00560776	2	-3.97514e-06	1.92889e-06
2	1	0	1	1	424.793	-0.333762	-0.333946	0.00595388	2	-3.96354e-06	1.98827e-06
2	1	0	1	1	424.795	-0.323766	-0.32394	0.00629295	2	-3.95126e-06	2.03854e-06
2	1	0	1	1	424.797	-0.313769	-0.313964	0.00662888	2	-3.93831e-06	2.08123e-06
2	1	0	1	1	424.799	-0.303773	-0.303964	0.00699672	2	-3.92465e-06	2.12675e-06
2	1	0	1	1	424.801	-0.293777	-0.293954	0.00740325	2	-3.91021e-06	2.17621e-06
2	1	0	1	1	424.803	-0.283781	-0.283928	0.00781136	2	-3.89496e-06	2.21786e-06
2	1	0	1	1	424.805	-0.273785	-0.273953	0.00823251	2	-3.87887e-06	2.25533e-06
2	1	0	1	1	424.807	-0.263789	-0.263962	0.00876921	2	-3.86182e-06	2.31474e-06
2	1	0	1	1	424.809	-0.253792	-0.253979	0.00933686	2	-3.84365e-06	2.37137e-06
2	1	0	1	1	424.811	-0.243796	-0.243985	0.0100089	2	-3.82424e-06	2.44203e-06
2	1	0	1	1	424.813	-0.2338	-0.234009	0.0107661	2	-3.80339e-06	2.51937e-06
2	1	0	1	1	424.815	-0.223804	-0.223999	0.0116795	2	-3.78086e-06	2.61618e-06
2	1	0	1	1	424.817	-0.213808	-0.214003	0.0127228	2	-3.75636e-06	2.72271e-06
2	1	0	1	1	424.819	-0.203811	-0.203989	0.0138865	2	-3.72963e-06	2.83268e-06
2	1	0	1	1	424.821	-0.193815	-0.194	0.0151702	2	-3.70045e-06	2.94302e-06
2	1	0	1	1	424.823	-0.183819	-0.184023	0.0166487	2	-3.6685e-06	3.06375e-06
2	1	0	1	1	424.825	-0.173823	-0.174001	0.0181705	2	-3.63352e-06	3.16169e-06
2	1	0	1	1	424.827	-0.163827	-0.163998	0.0197987	2	-3.59539e-06	3.24695e-06
2	1	0	1	1	424.829	-0.15383	-0.153992	0.0214535	2	-3.55398e-06	3.30368e-06
2	1	0	1	1	424.831	-0.143834	-0.144009	0.0230071	2	-3.50935e-06	3.31323e-06
2	1	0	1	1	424.833	-0.133838	-0.134003	0.0246351	2	-3.46155e-06	3.30117e-06
2	1	0	1	1	424.835	-0.123842	-0.123997	0.026088	2	-3.41068e-06	3.23483e-06
2	1	0	1	1	424.837	-0.113846	-0.113993	0.0272577	2	-3.3572e-06	3.1072e-06
2	1	0	1	1	424.839	-0.10385	-0.103989	0.0283407	2	-3.30149e-06	2.94714e-06
2	1	0	1	1	424.841	-0.0938533	-0.0940046	0.0291259	2	-3.24393e-06	2.73797e-06
2	1	0	1	1	424.843	-0.0838571	-0.084022	0.0296891	2	-3.18506e-06	2.49453e-06
2	1	0	1	1	424.845	-0.073861	-0.0740271	0.029911	2	-3.12543e-06	2.21422e-06
2	1	0	1	1	424.847	-0.0638648	-0.0640288	0.0299118	2	-3.06561e-06	1.91522e-06
2	1	0	1	1	424.849	-0.0538686	-0.0540449	0.0296603	2	-3.00605e-06	1.60299e-06
2	1	0	1	1	424.851	-0.0438724	-0.0440369	0.0291619	2	-2.94727e-06	1.2842e-06
2	1	0	1	1	424.853	-0.0338762	-0.0340206	0.0285432	2	-2.88963e-06	9.71055e-07
2	1	0	1	1	424.855	-0.02388	-0.0240104	0.0276876	2	-2.83348e-06	6.64791e-07
2	1	0	1	1	424.857	-0.0137542	-0.0139169	0.0269105	2	-2.77897e-06	3.74511e-07
2	1	0	1	1	424.859	-0.00355443	-0.00370879	0.0261147	2	-2.72601e-06	9.68539e-08
2	1	0	1	1	424.861	0.00644176	0.00631811	0.0252625	2	-2.6747e-06	1.59611e-07
2	1	0	1	1	424.863	0.0164379	0.016338	0.0243497	2	-2.62517e-06	3.97826e-07
2	1	0	1	1	424.865	0.0264341	0.026314	0.0235296	2	-2.57737e-06	6.19159e-07
2	1	0	1	1	424.867	0.0364303	0.0363077	0.0228655	2	-2.53105e-06	8.30193e-07
2	1	0	1	1	424.869	0.0464265	0.046306	0.0222189	2	-2.48604e-06	1.02887e-06
2	1	0	1	1	424.871	0.0564227	0.0563316	0.0216047	2	-2.44227e-06	1.21702e-06
2	1	0	1	1	424.873	0.0664189	0.0663275	0.0210596	2	-2.39966e-06	1.39683e-06
2	1	0	1	1	424.875	0.076415	0.0763014	0.0205246	2	-2.35813e-06	1.56606e-06
2	1	0	1	1	424.877	0.0864112	0.086272	0.0200724	2	-2.31758e-06	1.73169e-06
2	1	0	1	1	424.879	0.0954078	0.0952884	0.0197866	2	-2.28171e-06	1.88544e-06
2	1	0	1	1	424.88	0.0999061	0.0997917	0.0195736	2	-2.26396e-06	1.95328e-06
2	1	0	0	1	424.88	0.100906	0.100807	0.0195732	2	-2.26005e-06	1.97311e-06
2	0	0	1	1	424.88	0.0999061	0.0999329	0.0182768	2	-2.25639e-06	1.82646e-06
2	0	0	0	1	424.881	0.0944082	0.0943954	0.013055	2	-2.24159e-06	1.23233e-06
2	0	0	0	1	424.883	0.084412	0.0843789	0.00768771	2	-2.22154e-06	6.4868e-07
2	0	0	0	1	424.885	0.0744158	0.0743651	0.00479388	2	-2.2094e-06	3.56497e-07
2	0	0	0	1	424.887	0.0644196	0.0643902	0.00289258	2	-2.20193e-06	1.86254e-07
2	0	0	0	1	424.889	0.0544234	0.0544044	0.00147324	2	-2.19772e-06	8.01509e-08
2	0	0	0	1	424.891	0.0444273	0.0443887	0.000342055	2	-2.19602e-06	1.51834e-08
2	0	0	0	1	424.893	0.0344311	0.034376	-0.000593878	2	-2.19637e-06	2.04152e-08
2	0	0	0	1	424.895	0.0244349	0.0243756	-0.00139136	2	-2.19845e-06	3.39153e-08
2	0	0	0	1	424.897	0.0144387	0.0143864	-0.00209458	2	-2.202e-06	3.01335e-08
2	0	0	0	1	424.899	0.00444252	0.00435508	-0.00273925	2	-2.2069e-06	1.19297e-08
2	0	0	0	1	424.901	-0.00555366	-0.00565571	-0.00331502	2	-2.21302e-06	1.87488e-08
2	0	0	0	1	424.903	-0.0158275	-0.0159344	-0.00399137	2	-2.22037e-06	6.36002e-08
2	0	0	0	1	424.905	-0.0258792	-0.0259601	-0.00442872	2	-2.22884e-06	1.1497e-07
2	0	0	0	1	424.907	-0.0358754	-0.0359677	-0.00487814	2	-2.2382e-06	1.75455e-07
2	0	0	0	1	424.909	-0.0458716	-0.0459753	-0.00537182	2	-2.24849e-06	2.46971e-07
2	0	0	0	1	424.911	-0.0558678	-0.0559825	-0.00582912	2	-2.25974e-06	3.26329e-07
2	0	0	0	1	424.913	-0.065864	-0.0659689	-0.00629688	2	-2.27191e-06	4.15399e-07
2	0	0	0	1	424.915	-0.0758602	-0.0759572	-0.00680215	2	-2.28506e-06	5.16673e-07
2	0	0	0	1	424.917	-0.0858564	-0.0859502	-0.00733037	2	-2.29925e-06	6.30047e-07
2	0	0	0	1	424.919	-0.0958526	-0.0959256	-0.00788069	2	-2.31451e-06	7.5596e-07
2	0	0	0	1	424.921	-0.105849	-0.105909	-0.00851023	2	-2.33096e-06	9.01307e-07
2	0	0	0	1	424.923	-0.115845	-0.115907	-0.00921256	2	-2.34875e-06	1.0678e-06
2	0	0	0	1	424.925	-0.125841	-0.12592	-0.0100027	2	-2.36804e-06	1.25954e-06
2	0	0	0	1	424.927	-0.135837	-0.13593	-0.0108894	2	-2.38902e-06	1.48019e-06
2	0	0	0	1	424.929	-0.145834	-0.145932	-0.0118592	2	-2.41187e-06	1.73064e-06
2	0	0	0	1	424.931	-0.15583	-0.155933	-0.0130165	2	-2.43686e-06	2.0297e-06
2	0	0	0	1	424.933	-0.165826	-0.16594	-0.0142378	2	-2.46424e-06	2.36263e-06
2	0	0	0	1	424.935	-0.175822	-0.175924	-0.0155886	2	-2.49419e-06	2.74241e-06
2	0	0	0	1	424.937	-0.185818	-0.185938	-0.0169896	2	-2.5269e-06	3.15901e-06
2	0	0	0	1	424.939	-0.195814	-0.195908	-0.0185	2	-2.56253e-06	3.62431e-06
2	0	0	0	1	424.941	-0.205811	-0.205906	-0.020021	2	-2.60122e-06	4.12243e-06
2	0	0	0	1	424.943	-0.215807	-0.215924	-0.0215589	2	-2.64296e-06	4.65507e-06
2	0	0	0	1	424.945	-0.225803	-0.225934	-0.0230959	2	-2.68777e-06	5.21814e-06
2	0	0	0	1	424.947	-0.235799	-0.235914	-0.0245315	2	-2.73554e-06	5.78733e-06
2	0	0	0	1	424.949	-0.245795	-0.245911	-0.0259233	2	-2.78614e-06	6.37483e-06
2	0	0	0	1	424.951	-0.255792	-0.255916	-0.0271557	2	-2.83936e-06	6.94957e-06
2	0	0	0	1	424.953	-0.265788	-0.265887	-0.0283442	2	-2.89497e-06	7.53638e-06
2	0	0	0	1	424.955	-0.275784	-0.275879	-0.029274	2	-2.9527e-06	8.07609e-06
2	0	0	0	1	424.957	-0.28578	-0.285868	-0.0301253	2	-3.01218e-06	8.61184e-06
2	0	0	0	1	424.959	-0.295776	-0.29589	-0.0307583	2	-3.07314e-06	9.10108e-06
2	0	0	0	1	424.961	-0.305773	-0.305894	-0.0314112	2	-3.13537e-06	9.6085e-06
2	0	0	0	1	424.963	-0.315769	-0.315889	-0.0318424	2	-3.19868e-06	1.00587e-05
2	0	0	0	1	424.965	-0.325765	-0.325888	-0.0320873	2	-3.26264e-06	1.04569e-05
2	0	0	0	1	424.967	-0.335761	-0.335887	-0.0321458	2	-3.32687e-06	1.07973e-05
2	0	0	0	1	424.969	-0.345757	-0.345909	-0.0321869	2	-3.3912e-06	1.11337e-05
2	0	0	0	1	424.971	-0.355754	-0.355907	-0.0320397	2	-3.45542e-06	1.14031e-05
2	0	0	0	1	424.973	-0.36575	-0.365882	-0.0315419	2	-3.51896e-06	1.15406e-05
2	0	0	0	1	424.975	-0.375746	-0.375885	-0.0312978	2	-3.58178e-06	1.17644e-05
2	0	0	0	1	424.977	-0.385742	-0.38592	-0.0310377	2	-3.6441e-06	1.19781e-05
2	0	0	0	1	424.979	-0.395738	-0.395895	-0.0306334	2	-3.70573e-06	1.21276e-05
2	0	0	0	1	424.981	-0.405734	-0.405905	-0.0302688	2	-3.76659e-06	1.22862e-05
2	0	0	0	1	424.983	-0.415731	-0.415889	-0.029905	2	-3.8267e-06	1.24372e-05
2	0	0	0	1	424.985	-0.425727	-0.425883	-0.0295591	2	-3.88614e-06	1.25887e-05
2	0	0	0	1	424.987	-0.435723	-0.435863	-0.0291268	2	-3.9448e-06	1.26953e-05
2	0	0	0	1	424.989	-0.445719	-0.445849	-0.0289057	2	-4.0028e-06	1.28876e-05
2	0	0	0	1	424.991	-0.455715	-0.455835	-0.0286006	2	-4.06028e-06	1.30372e-05
2	0	0	0	1	424.993	-0.465712	-0.465849	-0.0283887	2	-4.11725e-06	1.32248e-05
2	0	0	0	1	424.995	-0.475708	-0.47587	-0.0281365	2	-4.17375e-06	1.33893e-05
2	0	0	0	1	424.997	-0.485704	-0.485858	-0.0280644	2	-4.22996e-06	1.36353e-05
2	0	0	0	1	424.999	-0.4957	-0.495833	-0.0280417	2	-4.28606e-06	1.3904e-05
2	0	0	0	1	425.001	-0.505696	-0.505853	-0.0279494	2	-4.34206e-06	1.41383e-05
2	0	0	0	1	425.003	-0.515693	-0.51583	-0.0279404	2	-4.39793e-06	1.44125e-05
2	0	0	0	1	425.005	-0.525689	-0.525842	-0.0279303	2	-4.45382e-06	1.46869e-05
2	0	0	0	1	425.007	-0.535685	-0.535814	-0.0278893	2	-4.50963e-06	1.49435e-05
2	0	0	0	1	425.009	-0.545681	-0.545823	-0.0280212	2	-4.56554e-06	1.52946e-05
2	0	0	0	1	425.011	-0.555677	-0.555841	-0.0281769	2	-4.62175e-06	1.56619e-05
2	0	0	0	1	425.013	-0.565673	-0.565829	-0.028326	2	-4.67828e-06	1.60277e-05
2	0	0	0	1	425.015	-0.57567	-0.575836	-0.0285352	2	-4.73517e-06	1.64316e-05
2	0	0	0	1	425.017	-0.585666	-0.585811	-0.0288129	2	-4.79254e-06	1.68789e-05
2	0	0	0	1	425.019	-0.594662	-0.594803	-0.0290823	2	-4.84464e-06	1.72982e-05
2	0	0	0	1	425.02	-0.599161	-0.599302	-0.029254	2	-4.87087e-06	1.7532e-05
2	0	0	1	1	425.02	-0.60016	-0.600237	-0.0292685	2	-4.87672e-06	1.7568e-05