File: TAP_Report/Data/MB_SHU/100 uM MB 10mM PB Second ITO_01_CV_C01_2.mpt
EC-Lab ASCII FILE
Nb header lines : 53

Cyclic Voltammetry

Run on channel : 1 (SN 0696)
User :
Electrode connection : standard
Ewe ctrl range : min = -10.00 V, max = 10.00 V
Ewe,I filtering : 50 kHz
Channel : Grounded
Acquisition started on : 05/17/2017 12:14:48
Saved on :
	File : 100 uM MB 10mM PB Second ITO_01_CV_C01.mpr
	Directory : \\userfs\st659\w2k\EC-Lab\Data\ITO Characterisation 17-5-17\
	Host : 144.32.136.43
Device : SP-300 (SN 0182)
Address : USB
EC-Lab for windows v10.44 (software)
Internet server v10.44 (firmware)
Command interpretor v10.44 (firmware)
Electrode material :
Initial state :
Electrolyte :
Comments :
Cable : standard
Electrode surface area : 0.001 cm²
Characteristic mass : 0.001 g
Equivalent Weight : 0.000 g/eq.
Density : 0.000 g/cm3
Ei (V)              0.000
vs.                 Eoc
dE/dt               20.000
dE/dt unit          mV/s
E1 (V)              0.100
vs.                 Ref
Step percent        50
N                   10
E range min (V)     -10.000
E range max (V)     10.000
I Range             Auto
I Range min         Unset
I Range max         Unset
I Range init        Unset
Bandwidth           8
E2 (V)              -0.600
vs.                 Ref
nc cycles           2
Reverse Scan        1
Ef (V)              0.000
vs.                 Eoc

mode	ox/red	error	control changes	counter inc.	time/s	control/V	Ewe/V	<I>/mA	cycle number	(Q-Qo)/C	P/W
2	1	0	1	1	51.2478	-0.599827	-0.600062	-0.00388903	2	-8.20572e-05	2.33366e-06
2	1	0	1	1	51.3395	-0.597994	-0.598196	-0.00380268	2	-8.24051e-05	2.27475e-06
2	1	0	0	1	51.5061	-0.594662	-0.594873	-0.00368835	2	-8.30256e-05	2.1941e-06
2	1	0	1	1	51.6727	-0.59133	-0.591532	-0.00359129	2	-8.36285e-05	2.12437e-06
2	1	0	0	1	51.8393	-0.587998	-0.588205	-0.00350508	2	-8.42163e-05	2.06171e-06
2	1	0	1	1	52.0059	-0.584666	-0.584863	-0.00342588	2	-8.47903e-05	2.00367e-06
2	1	0	0	1	52.1725	-0.581334	-0.581529	-0.00335293	2	-8.53517e-05	1.94983e-06
2	1	0	1	1	52.3391	-0.578002	-0.578206	-0.00328495	2	-8.59015e-05	1.89938e-06
2	1	0	0	1	52.5057	-0.57467	-0.574875	-0.00322166	2	-8.64403e-05	1.85205e-06
2	1	0	1	1	52.6723	-0.571338	-0.571547	-0.00316132	2	-8.69689e-05	1.80685e-06
2	1	0	0	1	52.8389	-0.568006	-0.568219	-0.00310377	2	-8.74877e-05	1.76362e-06
2	1	0	1	1	53.0055	-0.564674	-0.564886	-0.00304972	2	-8.79971e-05	1.72274e-06
2	1	0	0	1	53.1721	-0.561342	-0.561532	-0.00299871	2	-8.84978e-05	1.68387e-06
2	1	0	1	1	53.3387	-0.55801	-0.558217	-0.00295256	2	-8.89905e-05	1.64817e-06
2	1	0	0	1	53.5054	-0.554676	-0.554896	-0.00290494	2	-8.94757e-05	1.61194e-06
2	1	0	1	1	53.672	-0.551344	-0.551547	-0.00286022	2	-8.99528e-05	1.57754e-06
2	1	0	0	1	53.8386	-0.548012	-0.548202	-0.00281524	2	-9.04225e-05	1.54332e-06
2	1	0	1	1	54.0052	-0.54468	-0.544892	-0.00277231	2	-9.08849e-05	1.51061e-06
2	1	0	0	1	54.1718	-0.541348	-0.541559	-0.00273016	2	-9.13402e-05	1.47855e-06
2	1	0	1	1	54.3384	-0.538016	-0.538219	-0.00268944	2	-9.17886e-05	1.44751e-06
2	1	0	0	1	54.505	-0.534684	-0.534886	-0.00265116	2	-9.22305e-05	1.41807e-06
2	1	0	1	1	54.6716	-0.531352	-0.531562	-0.00261394	2	-9.26661e-05	1.38947e-06
2	1	0	0	1	54.8382	-0.52802	-0.528242	-0.00257736	2	-9.30955e-05	1.36147e-06
2	1	0	1	1	55.0048	-0.524688	-0.524911	-0.00254303	2	-9.35191e-05	1.33486e-06
2	1	0	0	1	55.1714	-0.521356	-0.521568	-0.00250929	2	-9.39369e-05	1.30877e-06
2	1	0	1	1	55.338	-0.518024	-0.518242	-0.00247706	2	-9.43493e-05	1.28372e-06
2	1	0	0	1	55.5046	-0.514692	-0.514906	-0.00244509	2	-9.47564e-05	1.25899e-06
2	1	0	1	1	55.6712	-0.51136	-0.511593	-0.00241409	2	-9.51582e-05	1.23503e-06
2	1	0	0	1	55.8378	-0.508028	-0.508244	-0.00238352	2	-9.55548e-05	1.21141e-06
2	1	0	1	1	56.0044	-0.504696	-0.504903	-0.00235458	2	-9.59466e-05	1.18884e-06
2	1	0	0	1	56.171	-0.501364	-0.501578	-0.00232408	2	-9.63333e-05	1.16571e-06
2	1	0	1	1	56.3376	-0.498032	-0.49823	-0.00229541	2	-9.67152e-05	1.14364e-06
2	1	0	0	1	56.5042	-0.4947	-0.494897	-0.0022679	2	-9.70924e-05	1.12238e-06
2	1	0	1	1	56.6708	-0.491368	-0.491568	-0.00224117	2	-9.74652e-05	1.10169e-06
2	1	0	0	1	56.8374	-0.488036	-0.488259	-0.00221579	2	-9.78335e-05	1.08188e-06
2	1	0	1	1	57.004	-0.484704	-0.48492	-0.00218942	2	-9.81975e-05	1.0617e-06
2	1	0	0	1	57.1706	-0.481372	-0.481593	-0.00216395	2	-9.85572e-05	1.04214e-06
2	1	0	1	1	57.3372	-0.47804	-0.478271	-0.00213989	2	-9.89128e-05	1.02345e-06
2	1	0	0	1	57.5038	-0.474708	-0.474927	-0.00211635	2	-9.92645e-05	1.00511e-06
2	1	0	1	1	57.6704	-0.471376	-0.471604	-0.00209303	2	-9.96123e-05	9.87079e-07
2	1	0	0	1	57.837	-0.468044	-0.46824	-0.00207007	2	-9.99562e-05	9.6929e-07
2	1	0	1	1	58.0036	-0.464712	-0.464903	-0.00204709	2	-0.000100296	9.51697e-07
2	1	0	0	1	58.1702	-0.46138	-0.461591	-0.00202499	2	-0.000100633	9.34718e-07
2	1	0	1	1	58.3368	-0.458048	-0.458234	-0.00200264	2	-0.000100965	9.17678e-07
2	1	0	0	1	58.5034	-0.454716	-0.454897	-0.00198082	2	-0.000101294	9.01068e-07
2	1	0	1	1	58.67	-0.451384	-0.451581	-0.00195967	2	-0.00010162	8.84949e-07
2	1	0	0	1	58.8366	-0.448052	-0.448232	-0.00193915	2	-0.000101941	8.69189e-07
2	1	0	1	1	59.0032	-0.44472	-0.444914	-0.00191851	2	-0.00010226	8.53571e-07
2	1	0	0	1	59.1698	-0.441388	-0.441581	-0.0018993	2	-0.000102575	8.38694e-07
2	1	0	1	1	59.3364	-0.438056	-0.438263	-0.00187988	2	-0.000102887	8.23882e-07
2	1	0	0	1	59.503	-0.434724	-0.43493	-0.00185981	2	-0.000103196	8.08886e-07
2	1	0	1	1	59.6696	-0.431392	-0.431586	-0.00184082	2	-0.000103501	7.94474e-07
2	1	0	0	1	59.8362	-0.42806	-0.428265	-0.0018231	2	-0.000103803	7.80771e-07
2	1	0	1	1	60.0028	-0.424729	-0.424936	-0.00180476	2	-0.000104103	7.66907e-07
2	1	0	0	1	60.1694	-0.421396	-0.421625	-0.0017867	2	-0.000104399	7.5332e-07
2	1	0	1	1	60.336	-0.418064	-0.418306	-0.00176872	2	-0.000104692	7.39868e-07
2	1	0	0	1	60.5026	-0.414732	-0.414948	-0.00175164	2	-0.000104983	7.26841e-07
2	1	0	1	1	60.6692	-0.4114	-0.411615	-0.00173491	2	-0.00010527	7.14115e-07
2	1	0	0	1	60.8358	-0.408068	-0.408292	-0.00171889	2	-0.000105555	7.01807e-07
2	1	0	1	1	61.0024	-0.404736	-0.404957	-0.00170365	2	-0.000105837	6.89904e-07
2	1	0	1	1	61.1691	-0.401402	-0.401633	-0.00168836	2	-0.000106117	6.78099e-07
2	1	0	0	1	61.3357	-0.39807	-0.398314	-0.00167308	2	-0.000106395	6.66413e-07
2	1	0	1	1	61.5023	-0.394738	-0.394983	-0.001658	2	-0.000106669	6.54881e-07
2	1	0	0	1	61.6689	-0.391406	-0.391636	-0.00164218	2	-0.000106941	6.43135e-07
2	1	0	1	1	61.8355	-0.388074	-0.38829	-0.00162797	2	-0.000107211	6.32125e-07
2	1	0	0	1	62.0021	-0.384742	-0.384967	-0.00161346	2	-0.000107478	6.21127e-07
2	1	0	1	1	62.1687	-0.38141	-0.381611	-0.00159925	2	-0.000107743	6.10291e-07
2	1	0	0	1	62.3353	-0.378078	-0.378281	-0.00158408	2	-0.000108005	5.99227e-07
2	1	0	1	1	62.5019	-0.374746	-0.374949	-0.0015709	2	-0.000108265	5.89009e-07
2	1	0	0	1	62.6685	-0.371414	-0.371612	-0.00155806	2	-0.000108523	5.78993e-07
2	1	0	1	1	62.8351	-0.368082	-0.368284	-0.00154547	2	-0.000108778	5.69171e-07
2	1	0	0	1	63.0017	-0.36475	-0.364944	-0.00153276	2	-0.000109032	5.59373e-07
2	1	0	1	1	63.1683	-0.361418	-0.361641	-0.00152032	2	-0.000109283	5.49812e-07
2	1	0	0	1	63.3349	-0.358086	-0.358316	-0.0015078	2	-0.000109533	5.40269e-07
2	1	0	1	1	63.5015	-0.354754	-0.354993	-0.00149547	2	-0.00010978	5.30883e-07
2	1	0	0	1	63.6681	-0.351422	-0.351642	-0.00148263	2	-0.000110025	5.21354e-07
2	1	0	1	1	63.8347	-0.34809	-0.348302	-0.00147017	2	-0.000110268	5.12063e-07
2	1	0	0	1	64.0013	-0.344758	-0.344983	-0.0014592	2	-0.00011051	5.03398e-07
2	1	0	1	1	64.168	-0.341424	-0.341657	-0.00144732	2	-0.000110749	4.94486e-07
2	1	0	0	1	64.3346	-0.338092	-0.338269	-0.00143516	2	-0.000110986	4.85469e-07
2	1	0	1	1	64.5012	-0.33476	-0.334948	-0.0014233	2	-0.000111222	4.76731e-07
2	1	0	0	1	64.6678	-0.331428	-0.331612	-0.00141142	2	-0.000111455	4.68043e-07
2	1	0	1	1	64.8344	-0.328096	-0.328261	-0.00139935	2	-0.000111686	4.59352e-07
2	1	0	0	1	65.001	-0.324764	-0.324932	-0.00138819	2	-0.000111915	4.51069e-07
2	1	0	1	1	65.1676	-0.321432	-0.321626	-0.00137641	2	-0.000112143	4.4269e-07
2	1	0	0	1	65.3342	-0.3181	-0.318299	-0.00136455	2	-0.000112368	4.34334e-07
2	1	0	1	1	65.5008	-0.314768	-0.314966	-0.00135261	2	-0.000112592	4.26026e-07
2	1	0	0	1	65.6674	-0.311436	-0.311639	-0.0013409	2	-0.000112813	4.17877e-07
2	1	0	1	1	65.834	-0.308104	-0.308302	-0.00133002	2	-0.000113033	4.10047e-07
2	1	0	0	1	66.0006	-0.304772	-0.304936	-0.00131892	2	-0.000113251	4.02187e-07
2	1	0	1	1	66.1672	-0.30144	-0.301627	-0.00130787	2	-0.000113467	3.94488e-07
2	1	0	0	1	66.3338	-0.298108	-0.298297	-0.00129562	2	-0.000113681	3.86478e-07
2	1	0	1	1	66.5004	-0.294776	-0.294944	-0.00128336	2	-0.000113893	3.78518e-07
2	1	0	0	1	66.667	-0.291444	-0.291627	-0.00127106	2	-0.000114102	3.70675e-07
2	1	0	1	1	66.8336	-0.288112	-0.288291	-0.00125796	2	-0.00011431	3.62659e-07
2	1	0	0	1	67.0002	-0.28478	-0.284947	-0.00124505	2	-0.000114516	3.54774e-07
2	1	0	1	1	67.1668	-0.281448	-0.281616	-0.00123221	2	-0.000114719	3.47011e-07
2	1	0	0	1	67.3334	-0.278116	-0.278281	-0.00121836	2	-0.00011492	3.39046e-07
2	1	0	1	1	67.5	-0.274784	-0.274955	-0.00120459	2	-0.000115119	3.31207e-07
2	1	0	0	1	67.6666	-0.271452	-0.27163	-0.00119054	2	-0.000115316	3.23387e-07
2	1	0	1	1	67.8332	-0.26812	-0.26831	-0.00117512	2	-0.000115509	3.15295e-07
2	1	0	0	1	67.9998	-0.264788	-0.26497	-0.00116019	2	-0.000115701	3.07416e-07
2	1	0	1	1	68.1664	-0.261456	-0.261635	-0.00114485	2	-0.00011589	2.99533e-07
2	1	0	0	1	68.333	-0.258124	-0.258303	-0.0011292	2	-0.000116076	2.91676e-07
2	1	0	1	1	68.4996	-0.254792	-0.255003	-0.00111249	2	-0.00011626	2.83688e-07
2	1	0	0	1	68.6662	-0.25146	-0.251656	-0.00109417	2	-0.00011644	2.75356e-07
2	1	0	1	1	68.8328	-0.248128	-0.248332	-0.00107544	2	-0.000116618	2.67066e-07
2	1	0	0	1	68.9994	-0.244796	-0.244985	-0.00105573	2	-0.000116792	2.58639e-07
2	1	0	1	1	69.166	-0.241464	-0.241659	-0.0010345	2	-0.000116963	2.49996e-07
2	1	0	0	1	69.3326	-0.238132	-0.238329	-0.0010116	2	-0.00011713	2.41093e-07
2	1	0	1	1	69.4992	-0.2348	-0.235	-0.000986973	2	-0.000117293	2.31939e-07
2	1	0	0	1	69.6658	-0.231468	-0.231693	-0.000960387	2	-0.000117451	2.22515e-07
2	1	0	1	1	69.8324	-0.228136	-0.228346	-0.000931564	2	-0.000117605	2.12719e-07
2	1	0	0	1	69.999	-0.224804	-0.225017	-0.000898879	2	-0.000117754	2.02264e-07
2	1	0	1	1	70.1656	-0.221472	-0.221686	-0.000862614	2	-0.000117897	1.91229e-07
2	1	0	0	1	70.3322	-0.21814	-0.218335	-0.000822651	2	-0.000118033	1.79614e-07
2	1	0	1	1	70.4988	-0.214808	-0.215006	-0.00077822	2	-0.000118163	1.67322e-07
2	1	0	0	1	70.6654	-0.211477	-0.21168	-0.000727207	2	-0.000118284	1.53935e-07
2	1	0	1	1	70.832	-0.208144	-0.208325	-0.000671176	2	-0.000118396	1.39823e-07
2	1	0	0	1	70.9986	-0.204812	-0.204993	-0.000608783	2	-0.000118499	1.24796e-07
2	1	0	1	1	71.1652	-0.20148	-0.201667	-0.000539451	2	-0.00011859	1.0879e-07
2	1	0	0	1	71.3485	-0.197814	-0.198002	-0.000456205	2	-0.000118674	9.03294e-08
2	1	0	0	1	71.5318	-0.194148	-0.19433	-0.000366041	2	-0.000118745	7.11326e-08
2	1	0	1	1	71.6984	-0.190816	-0.191014	-0.000278042	2	-0.000118794	5.31098e-08
2	1	0	0	1	71.865	-0.187484	-0.187688	-0.000187258	2	-0.000118828	3.51461e-08
2	1	0	1	1	72.0316	-0.184152	-0.184361	-9.71732e-05	2	-0.000118847	1.79149e-08
2	1	0	0	1	72.1982	-0.18082	-0.181015	-8.29212e-06	2	-0.000118851	1.501e-09
2	1	0	1	1	72.3648	-0.177488	-0.177678	7.37301e-05	2	-0.000118841	1.31002e-08
2	1	0	0	1	72.5314	-0.174156	-0.174356	0.000144137	2	-0.000118818	2.51311e-08
2	1	0	1	1	72.698	-0.170824	-0.171018	0.000203738	2	-0.000118785	3.48429e-08
2	1	0	0	1	72.8646	-0.167492	-0.167689	0.000250706	2	-0.000118742	4.20405e-08
2	1	0	1	1	73.0312	-0.16416	-0.164355	0.000284133	2	-0.000118693	4.66988e-08
2	1	0	0	1	73.1978	-0.160828	-0.161006	0.000306047	2	-0.00011864	4.92753e-08
2	1	0	1	1	73.3644	-0.157496	-0.157664	0.000315448	2	-0.000118584	4.97349e-08
2	1	0	0	1	73.531	-0.154164	-0.154317	0.000314506	2	-0.000118527	4.85335e-08
2	1	0	1	1	73.6976	-0.150832	-0.151001	0.000305743	2	-0.000118471	4.61674e-08
2	1	0	0	1	73.8642	-0.1475	-0.147669	0.000290806	2	-0.000118418	4.29432e-08
2	1	0	1	1	74.0308	-0.144168	-0.14434	0.000273108	2	-0.000118367	3.94204e-08
2	1	0	0	1	74.1974	-0.140836	-0.141017	0.000252788	2	-0.000118319	3.56475e-08
2	1	0	1	1	74.364	-0.137504	-0.13769	0.000231562	2	-0.000118275	3.18836e-08
2	1	0	0	1	74.5306	-0.134172	-0.134333	0.00020983	2	-0.000118234	2.81872e-08
2	1	0	1	1	74.6972	-0.13084	-0.131009	0.000187445	2	-0.000118197	2.4557e-08
2	1	0	0	1	74.8638	-0.127509	-0.12769	0.000167347	2	-0.000118164	2.13685e-08
2	1	0	1	1	75.0304	-0.124176	-0.124337	0.000148096	2	-0.000118134	1.84138e-08
2	1	0	0	1	75.197	-0.120844	-0.121005	0.000128842	2	-0.000118108	1.55906e-08
2	1	0	1	1	75.3636	-0.117512	-0.117664	0.000112087	2	-0.000118084	1.31886e-08
2	1	0	0	1	75.5302	-0.11418	-0.114315	9.62573e-05	2	-0.000118063	1.10037e-08
2	1	0	1	1	75.6968	-0.110848	-0.110985	8.12856e-05	2	-0.000118045	9.02148e-09
2	1	0	0	1	75.8634	-0.107516	-0.107654	6.72737e-05	2	-0.00011803	7.24227e-09
2	1	0	1	1	76.03	-0.104184	-0.104351	5.43182e-05	2	-0.000118016	5.66817e-09
2	1	0	1	1	76.1967	-0.10085	-0.101005	4.25876e-05	2	-0.000118005	4.30156e-09
2	1	0	0	1	76.3633	-0.0975181	-0.0976902	3.20298e-05	2	-0.000117996	3.129e-09
2	1	0	1	1	76.5299	-0.0941861	-0.0943602	2.20148e-05	2	-0.000117988	2.07732e-09
2	1	0	0	1	76.6965	-0.090854	-0.0910141	1.31643e-05	2	-0.000117982	1.19814e-09
2	1	0	1	1	76.8631	-0.087522	-0.0877017	4.35673e-06	2	-0.000117978	3.82093e-10
2	1	0	0	1	77.0297	-0.0841899	-0.0843732	-3.4902e-06	2	-0.000117975	2.94479e-10
2	1	0	1	1	77.1963	-0.0808583	-0.0810426	-1.11145e-05	2	-0.000117973	9.00751e-10
2	1	0	0	1	77.3629	-0.0775262	-0.0777146	-1.83338e-05	2	-0.000117973	1.42481e-09
2	1	0	1	1	77.5295	-0.0741942	-0.0743811	-2.49554e-05	2	-0.000117974	1.85621e-09
2	1	0	0	1	77.6961	-0.0708621	-0.0710359	-3.08152e-05	2	-0.000117976	2.18899e-09
2	1	0	1	1	77.8627	-0.06753	-0.0677062	-3.706e-05	2	-0.000117978	2.50919e-09
2	1	0	0	1	78.0293	-0.064198	-0.0643643	-4.1885e-05	2	-0.000117982	2.6959e-09
2	1	0	1	1	78.1959	-0.0608663	-0.061064	-4.79658e-05	2	-0.000117987	2.92898e-09
2	1	0	0	1	78.3625	-0.0575343	-0.057727	-5.33551e-05	2	-0.000117993	3.08003e-09
2	1	0	1	1	78.5291	-0.0542022	-0.054396	-5.79981e-05	2	-0.000118	3.15486e-09
2	1	0	0	1	78.6957	-0.0508702	-0.0510524	-6.24899e-05	2	-0.000118007	3.19026e-09
2	1	0	1	1	78.8623	-0.0475381	-0.0477332	-6.71187e-05	2	-0.000118015	3.20379e-09
2	1	0	0	1	79.0289	-0.044206	-0.0444004	-7.11541e-05	2	-0.000118024	3.15927e-09
2	1	0	1	1	79.1956	-0.0408722	-0.0410684	-7.53256e-05	2	-0.000118034	3.0935e-09
2	1	0	0	1	79.3622	-0.0375401	-0.0376958	-7.85904e-05	2	-0.000118044	2.96253e-09
2	1	0	1	1	79.5288	-0.0342081	-0.0343782	-8.21741e-05	2	-0.000118055	2.825e-09
2	1	0	0	1	79.6954	-0.030876	-0.0310587	-8.54702e-05	2	-0.000118066	2.65459e-09
2	1	0	1	1	79.862	-0.0275439	-0.027699	-8.81302e-05	2	-0.000118078	2.44111e-09
2	1	0	0	1	80.0286	-0.0242119	-0.0243826	-9.12515e-05	2	-0.00011809	2.22495e-09
2	1	0	1	1	80.1952	-0.0208798	-0.0210511	-9.38157e-05	2	-0.000118103	1.97492e-09
2	1	0	0	1	80.3618	-0.0175482	-0.0177317	-9.637e-05	2	-0.000118117	1.7088e-09
2	1	0	1	1	80.5284	-0.0142161	-0.0143957	-9.8688e-05	2	-0.00011813	1.42069e-09
2	1	0	0	1	80.695	-0.0108841	-0.0110759	-0.000100443	2	-0.000118144	1.11249e-09
2	1	0	1	1	80.8616	-0.00755201	-0.00773719	-0.000102105	2	-0.000118159	7.90005e-10
2	1	0	0	1	81.0282	-0.00421995	-0.0044	-0.000103829	2	-0.000118174	4.56848e-10
2	1	0	1	1	81.1948	-0.000875546	-0.00106513	-0.000105255	2	-0.000118188	1.1211e-10
2	1	0	0	1	81.3614	0.00244373	0.00226021	-0.000106385	2	-0.000118204	2.40452e-10
2	1	0	1	1	81.528	0.00577579	0.00562646	-0.00010744	2	-0.000118219	6.04508e-10
2	1	0	0	1	81.6946	0.00910785	0.00894674	-0.000108638	2	-0.000118234	9.7196e-10
2	1	0	1	1	81.8612	0.0124399	0.0122966	-0.000109294	2	-0.00011825	1.34395e-09
2	1	0	0	1	82.0278	0.015772	0.0156426	-0.000109307	2	-0.000118266	1.70985e-09
2	1	0	1	1	82.1944	0.019104	0.0189807	-0.000109468	2	-0.000118282	2.07778e-09
2	1	0	0	1	82.361	0.0224357	0.0222951	-0.000111291	2	-0.000118298	2.48124e-09
2	1	0	1	1	82.5276	0.0257677	0.0256148	-0.000111383	2	-0.000118314	2.85304e-09
2	1	0	0	1	82.6942	0.0290998	0.028951	-0.000111577	2	-0.00011833	3.23025e-09
2	1	0	1	1	82.8608	0.0324318	0.0322782	-0.000111671	2	-0.000118346	3.60453e-09
2	1	0	0	1	83.0274	0.0357639	0.0356251	-0.000111612	2	-0.000118362	3.97618e-09
2	1	0	1	1	83.194	0.039096	0.0389687	-0.000111261	2	-0.000118378	4.33571e-09
2	1	0	0	1	83.3606	0.042428	0.0422802	-0.000111041	2	-0.000118394	4.69485e-09
2	1	0	1	1	83.5272	0.0457596	0.0456475	-0.000110198	2	-0.00011841	5.03027e-09
2	1	0	0	1	83.6938	0.0490917	0.0489835	-0.000109467	2	-0.000118426	5.36207e-09
2	1	0	1	1	83.8604	0.0524238	0.0523229	-0.000109074	2	-0.000118442	5.70706e-09
2	1	0	0	1	84.027	0.0557558	0.0556418	-0.000108413	2	-0.000118458	6.0323e-09
2	1	0	1	1	84.1936	0.0590879	0.0589652	-0.000107482	2	-0.000118473	6.3377e-09
2	1	0	0	1	84.3602	0.0624199	0.0623103	-0.000106654	2	-0.000118489	6.64566e-09
2	1	0	1	1	84.5268	0.0657516	0.0656403	-0.000105546	2	-0.000118504	6.92808e-09
2	1	0	0	1	84.6934	0.0690836	0.0689546	-0.0001044	2	-0.000118519	7.19886e-09
2	1	0	1	1	84.86	0.0724157	0.072291	-0.000103294	2	-0.000118534	7.46719e-09
2	1	0	0	1	85.0266	0.0757478	0.0756407	-0.000101987	2	-0.000118549	7.71438e-09
2	1	0	1	1	85.1932	0.0790798	0.0789516	-0.000100322	2	-0.000118563	7.9206e-09
2	1	0	0	1	85.3598	0.0824119	0.082292	-9.91134e-05	2	-0.000118577	8.15625e-09
2	1	0	1	1	85.5264	0.0857435	0.0855959	-9.76628e-05	2	-0.000118591	8.35953e-09
2	1	0	0	1	85.693	0.0890756	0.0889255	-9.57543e-05	2	-0.000118605	8.515e-09
2	1	0	1	1	85.8596	0.0924076	0.0922582	-9.37912e-05	2	-0.000118618	8.65301e-09
2	1	0	0	1	86.0262	0.0957397	0.0955855	-9.2336e-05	2	-0.000118632	8.82599e-09
2	1	0	1	1	86.1678	0.0985719	0.098427	-9.05624e-05	2	-0.000118643	8.91378e-09
2	0	0	1	1	86.235	0.0999061	0.0998031	-8.94573e-05	2	-0.000118648	8.92812e-09
2	0	0	0	1	86.3266	0.098073	0.0979388	-0.000129023	2	-0.00011866	1.26364e-08
2	0	0	1	1	86.4932	0.0947409	0.0945954	-0.000168282	2	-0.000118688	1.59187e-08
2	0	0	0	1	86.6598	0.0914089	0.0912771	-0.000198285	2	-0.000118721	1.80989e-08
2	0	0	1	1	86.8264	0.0880768	0.0879435	-0.000225426	2	-0.000118759	1.98247e-08
2	0	0	0	1	86.993	0.0847452	0.0846203	-0.000249726	2	-0.000118801	2.11319e-08
2	0	0	1	1	87.1596	0.0814131	0.0812971	-0.000272309	2	-0.000118847	2.21379e-08
2	0	0	0	1	87.3262	0.0780811	0.0779694	-0.000292915	2	-0.000118896	2.28384e-08
2	0	0	1	1	87.4928	0.074749	0.0746288	-0.000312572	2	-0.000118949	2.33269e-08
2	0	0	0	1	87.6594	0.071417	0.0712795	-0.000330893	2	-0.000119005	2.35859e-08
2	0	0	1	1	87.826	0.0680849	0.0679639	-0.000348331	2	-0.000119064	2.3674e-08
2	0	0	0	1	87.9926	0.0647528	0.0646494	-0.00036453	2	-0.000119126	2.35666e-08
2	0	0	1	1	88.1592	0.0614212	0.0613077	-0.000380692	2	-0.000119191	2.33394e-08
2	0	0	0	1	88.3258	0.0580892	0.0579826	-0.000395491	2	-0.000119258	2.29316e-08
2	0	0	1	1	88.4924	0.0547571	0.0546445	-0.000410116	2	-0.000119327	2.24106e-08
2	0	0	0	1	88.659	0.051425	0.051297	-0.000424153	2	-0.000119399	2.17578e-08
2	0	0	1	1	88.8256	0.048093	0.0479687	-0.000437508	2	-0.000119474	2.09867e-08
2	0	0	0	1	88.9922	0.0447609	0.0446251	-0.000450842	2	-0.00011955	2.01189e-08
2	0	0	1	1	89.1588	0.0414293	0.0412868	-0.000463395	2	-0.000119629	1.91321e-08
2	0	0	0	1	89.3254	0.0380972	0.0379587	-0.000475255	2	-0.000119709	1.80401e-08
2	0	0	1	1	89.492	0.0347652	0.0346194	-0.000487289	2	-0.000119792	1.68697e-08
2	0	0	0	1	89.6586	0.0314331	0.0312794	-0.000498838	2	-0.000119877	1.56034e-08
2	0	0	1	1	89.8252	0.028101	0.0279452	-0.000509818	2	-0.000119963	1.4247e-08
2	0	0	0	1	89.9918	0.024769	0.0246139	-0.0005208	2	-0.000120052	1.28189e-08
2	0	0	1	1	90.1584	0.0214374	0.021282	-0.000531159	2	-0.000120142	1.13041e-08
2	0	0	0	1	90.325	0.0181053	0.0179471	-0.000541246	2	-0.000120234	9.7138e-09
2	0	0	1	1	90.4916	0.0147732	0.0146256	-0.000551225	2	-0.000120327	8.062e-09
2	0	0	0	1	90.6582	0.0114412	0.0112918	-0.000561043	2	-0.000120422	6.33517e-09
2	0	0	1	1	90.8248	0.00810912	0.00793981	-0.000570713	2	-0.000120519	4.53135e-09
2	0	0	0	1	90.9914	0.00477706	0.00461396	-0.000580092	2	-0.000120618	2.67652e-09
2	0	0	1	1	91.158	0.001445	0.00125707	-0.000588784	2	-0.000120717	7.40142e-10
2	0	0	1	1	91.3247	-0.00188884	-0.00208771	-0.000598582	2	-0.000120819	1.24967e-09
2	0	0	0	1	91.4913	-0.0052209	-0.005409	-0.000607188	2	-0.000120922	3.28428e-09
2	0	0	1	1	91.6579	-0.00855297	-0.00873882	-0.000616265	2	-0.000121026	5.38543e-09
2	0	0	0	1	91.8245	-0.011885	-0.0120792	-0.000624725	2	-0.000121132	7.54615e-09
2	0	0	1	1	91.9911	-0.0152171	-0.0153897	-0.000632862	2	-0.00012124	9.73953e-09
2	0	0	0	1	92.1577	-0.0185492	-0.0187445	-0.000641585	2	-0.000121348	1.20262e-08
2	0	0	1	1	92.3243	-0.0218808	-0.0220529	-0.000649548	2	-0.000121459	1.43244e-08
2	0	0	0	1	92.4909	-0.0252128	-0.0253757	-0.000657804	2	-0.00012157	1.66922e-08
2	0	0	1	1	92.6575	-0.0285449	-0.0287161	-0.000665702	2	-0.000121683	1.91163e-08
2	0	0	0	1	92.8241	-0.031877	-0.0320592	-0.000673787	2	-0.000121797	2.16011e-08
2	0	0	1	1	92.9907	-0.035209	-0.0353814	-0.000681529	2	-0.000121913	2.41134e-08
2	0	0	0	1	93.1573	-0.0385411	-0.0387108	-0.000689188	2	-0.000122029	2.6679e-08
2	0	0	1	1	93.3239	-0.0418727	-0.0420621	-0.000696894	2	-0.000122148	2.93129e-08
2	0	0	0	1	93.4905	-0.0452048	-0.0453994	-0.0007042	2	-0.000122267	3.19702e-08
2	0	0	1	1	93.6571	-0.0485368	-0.048716	-0.000711566	2	-0.000122388	3.46647e-08
2	0	0	0	1	93.8237	-0.0518689	-0.0520636	-0.000719444	2	-0.00012251	3.74568e-08
2	0	0	1	1	93.9903	-0.0552009	-0.0553972	-0.000726913	2	-0.000122633	4.0269e-08
2	0	0	0	1	94.1569	-0.058533	-0.0587247	-0.000734216	2	-0.000122757	4.31166e-08
2	0	0	1	1	94.3236	-0.0618669	-0.0620757	-0.000741867	2	-0.000122883	4.60519e-08
2	0	0	0	1	94.4902	-0.0651989	-0.0653952	-0.000749428	2	-0.00012301	4.9009e-08
2	0	0	1	1	94.6568	-0.068531	-0.0687364	-0.000756737	2	-0.000123138	5.20154e-08
2	0	0	0	1	94.8234	-0.071863	-0.0720641	-0.000764086	2	-0.000123268	5.50632e-08
2	0	0	1	1	94.99	-0.0751951	-0.0753892	-0.000772104	2	-0.000123398	5.82083e-08
2	0	0	0	1	95.1566	-0.0785272	-0.0787273	-0.000779336	2	-0.000123531	6.1355e-08
2	0	0	1	1	95.3232	-0.0818592	-0.0820529	-0.000786417	2	-0.000123664	6.45277e-08
2	0	0	0	1	95.4898	-0.0851909	-0.0853718	-0.000794482	2	-0.000123798	6.78264e-08
2	0	0	1	1	95.6564	-0.0885229	-0.0887116	-0.000802982	2	-0.000123934	7.12338e-08
2	0	0	0	1	95.823	-0.091855	-0.0920231	-0.000811637	2	-0.000124072	7.46894e-08
2	0	0	1	1	95.9896	-0.095187	-0.0953708	-0.000820613	2	-0.000124211	7.82625e-08
2	0	0	0	1	96.1562	-0.0985191	-0.0986987	-0.000829641	2	-0.000124351	8.18845e-08
2	0	0	1	1	96.3228	-0.101851	-0.102021	-0.000838732	2	-0.000124493	8.55683e-08
2	0	0	0	1	96.4894	-0.105183	-0.105346	-0.000848581	2	-0.000124637	8.93946e-08
2	0	0	1	1	96.656	-0.108515	-0.10868	-0.000859287	2	-0.000124783	9.33876e-08
2	0	0	0	1	96.8226	-0.111847	-0.112012	-0.000870162	2	-0.00012493	9.74687e-08
2	0	0	1	1	96.9892	-0.115179	-0.115339	-0.000882189	2	-0.000125079	1.01751e-07
2	0	0	0	1	97.1558	-0.118511	-0.11868	-0.000895079	2	-0.000125231	1.06228e-07
2	0	0	1	1	97.3224	-0.121843	-0.122011	-0.000908997	2	-0.000125385	1.10908e-07
2	0	0	0	1	97.5056	-0.125507	-0.125658	-0.000925028	2	-0.000125558	1.16237e-07
2	0	0	0	1	97.6889	-0.129173	-0.129333	-0.000943592	2	-0.000125734	1.22037e-07
2	0	0	1	1	97.8555	-0.132505	-0.132668	-0.000962383	2	-0.000125897	1.27678e-07
2	0	0	0	1	98.0221	-0.135837	-0.135995	-0.000984144	2	-0.000126063	1.33839e-07
2	0	0	1	1	98.1887	-0.139169	-0.139332	-0.00100892	2	-0.000126233	1.40575e-07
2	0	0	0	1	98.3553	-0.142501	-0.142663	-0.00103624	2	-0.000126407	1.47834e-07
2	0	0	1	1	98.5219	-0.145833	-0.146001	-0.00106777	2	-0.000126586	1.55895e-07
2	0	0	0	1	98.6886	-0.149167	-0.149344	-0.00110311	2	-0.000126772	1.64743e-07
2	0	0	1	1	98.8552	-0.152499	-0.152654	-0.0011444	2	-0.000126963	1.74697e-07
2	0	0	0	1	99.0218	-0.155831	-0.155994	-0.0011909	2	-0.000127162	1.85773e-07
2	0	0	1	1	99.1884	-0.159163	-0.159334	-0.00124437	2	-0.00012737	1.9827e-07
2	0	0	0	1	99.355	-0.162495	-0.162685	-0.00130421	2	-0.000127587	2.12175e-07
2	0	0	1	1	99.5216	-0.165827	-0.16601	-0.00137031	2	-0.000127814	2.27486e-07
2	0	0	0	1	99.6882	-0.169159	-0.169344	-0.00144461	2	-0.000128054	2.44636e-07
2	0	0	1	1	99.8548	-0.172491	-0.172696	-0.00152614	2	-0.000128306	2.63558e-07
2	0	0	0	1	100.021	-0.175823	-0.176022	-0.00161202	2	-0.000128573	2.83751e-07
2	0	0	1	1	100.188	-0.179155	-0.179355	-0.00170462	2	-0.000128854	3.05732e-07
2	0	0	0	1	100.355	-0.182487	-0.182682	-0.00179845	2	-0.000129151	3.28546e-07
2	0	0	1	1	100.521	-0.185819	-0.186017	-0.00189169	2	-0.000129464	3.51887e-07
2	0	0	0	1	100.688	-0.189151	-0.189347	-0.00198006	2	-0.000129792	3.74917e-07
2	0	0	1	1	100.854	-0.192483	-0.192668	-0.00206099	2	-0.000130134	3.97088e-07
2	0	0	0	1	101.021	-0.195815	-0.195999	-0.00213056	2	-0.000130488	4.17587e-07
2	0	0	1	1	101.188	-0.199147	-0.199336	-0.00218885	2	-0.000130853	4.36316e-07
2	0	0	0	1	101.354	-0.202479	-0.202665	-0.0022328	2	-0.000131227	4.52511e-07
2	0	0	1	1	101.521	-0.205811	-0.205987	-0.00226238	2	-0.000131606	4.66021e-07
2	0	0	0	1	101.687	-0.209143	-0.209316	-0.00227638	2	-0.000131989	4.76483e-07
2	0	0	1	1	101.854	-0.212475	-0.212687	-0.00228367	2	-0.000132374	4.85707e-07
2	0	0	0	1	102.021	-0.215807	-0.216031	-0.00228003	2	-0.000132759	4.92558e-07
2	0	0	1	1	102.187	-0.219139	-0.219349	-0.00226831	2	-0.000133143	4.9755e-07
2	0	0	0	1	102.354	-0.222471	-0.222683	-0.00225473	2	-0.000133524	5.0209e-07
2	0	0	1	1	102.52	-0.225803	-0.22603	-0.00223667	2	-0.000133903	5.05556e-07
2	0	0	0	1	102.687	-0.229135	-0.229339	-0.00221873	2	-0.000134279	5.0884e-07
2	0	0	1	1	102.854	-0.232467	-0.232679	-0.00220047	2	-0.000134651	5.12002e-07
2	0	0	0	1	103.02	-0.235799	-0.235986	-0.00218152	2	-0.000135021	5.14808e-07
2	0	0	1	1	103.187	-0.239131	-0.239319	-0.00216329	2	-0.000135387	5.17715e-07
2	0	0	0	1	103.353	-0.242463	-0.24265	-0.00214821	2	-0.000135751	5.21261e-07
2	0	0	1	1	103.52	-0.245795	-0.245997	-0.00213271	2	-0.000136112	5.24641e-07
2	0	0	0	1	103.687	-0.249127	-0.249314	-0.00211756	2	-0.00013647	5.27936e-07
2	0	0	1	1	103.853	-0.252459	-0.25266	-0.00210414	2	-0.000136826	5.31632e-07
2	0	0	0	1	104.02	-0.255791	-0.25597	-0.0020921	2	-0.00013718	5.35515e-07
2	0	0	1	1	104.186	-0.259123	-0.259291	-0.00208023	2	-0.000137531	5.39385e-07
2	0	0	0	1	104.353	-0.262455	-0.262626	-0.00207072	2	-0.000137881	5.43824e-07
2	0	0	1	1	104.52	-0.265787	-0.265977	-0.00206119	2	-0.000138229	5.4823e-07
2	0	0	0	1	104.686	-0.269119	-0.269283	-0.00205258	2	-0.000138576	5.52726e-07
2	0	0	1	1	104.853	-0.272451	-0.272623	-0.00204555	2	-0.000138921	5.57664e-07
2	0	0	0	1	105.019	-0.275783	-0.27596	-0.00203807	2	-0.000139265	5.62427e-07
2	0	0	1	1	105.186	-0.279115	-0.279285	-0.00203285	2	-0.000139608	5.67744e-07
2	0	0	0	1	105.353	-0.282447	-0.282611	-0.00202778	2	-0.00013995	5.73072e-07
2	0	0	1	1	105.519	-0.285779	-0.285942	-0.00202361	2	-0.000140291	5.78635e-07
2	0	0	0	1	105.686	-0.289111	-0.289288	-0.00201992	2	-0.000140632	5.8434e-07
2	0	0	1	1	105.852	-0.292443	-0.29262	-0.00201739	2	-0.000140972	5.90329e-07
2	0	0	0	1	106.019	-0.295775	-0.295959	-0.00201535	2	-0.000141311	5.96462e-07
2	0	0	1	1	106.186	-0.299107	-0.299316	-0.00201368	2	-0.00014165	6.02728e-07
2	0	0	1	1	106.352	-0.302441	-0.302631	-0.002012	2	-0.000141989	6.08894e-07
2	0	0	0	1	106.519	-0.305773	-0.305969	-0.00201121	2	-0.000142328	6.15368e-07
2	0	0	1	1	106.685	-0.309105	-0.309314	-0.00201117	2	-0.000142667	6.22083e-07
2	0	0	0	1	106.852	-0.312437	-0.312627	-0.00201133	2	-0.000143005	6.28796e-07
2	0	0	1	1	107.019	-0.315769	-0.315971	-0.00201214	2	-0.000143344	6.35779e-07
2	0	0	0	1	107.185	-0.319101	-0.319298	-0.00201351	2	-0.000143683	6.42911e-07
2	0	0	1	1	107.352	-0.322433	-0.322626	-0.00201499	2	-0.000144022	6.50087e-07
2	0	0	0	1	107.518	-0.325765	-0.325951	-0.00201757	2	-0.000144362	6.57629e-07
2	0	0	1	1	107.685	-0.329097	-0.329292	-0.00202047	2	-0.000144701	6.65326e-07
2	0	0	0	1	107.852	-0.332429	-0.332623	-0.00202321	2	-0.000145042	6.72967e-07
2	0	0	1	1	108.018	-0.335761	-0.335959	-0.00202691	2	-0.000145383	6.80957e-07
2	0	0	0	1	108.185	-0.339093	-0.339322	-0.00203086	2	-0.000145724	6.89115e-07
2	0	0	1	1	108.351	-0.342425	-0.342653	-0.00203491	2	-0.000146066	6.97269e-07
2	0	0	0	1	108.518	-0.345757	-0.345994	-0.00203961	2	-0.000146409	7.05694e-07
2	0	0	1	1	108.685	-0.349089	-0.349328	-0.00204536	2	-0.000146753	7.14502e-07
2	0	0	0	1	108.851	-0.352421	-0.352666	-0.00205064	2	-0.000147098	7.23191e-07
2	0	0	1	1	109.018	-0.355753	-0.355972	-0.00205628	2	-0.000147443	7.31976e-07
2	0	0	0	1	109.184	-0.359085	-0.359309	-0.00206293	2	-0.00014779	7.41228e-07
2	0	0	1	1	109.351	-0.362419	-0.362619	-0.00206949	2	-0.000148138	7.50437e-07
2	0	0	0	1	109.518	-0.365751	-0.365948	-0.00207674	2	-0.000148487	7.59979e-07
2	0	0	1	1	109.684	-0.369083	-0.369294	-0.00208461	2	-0.000148837	7.69833e-07
2	0	0	0	1	109.851	-0.372415	-0.372618	-0.00209234	2	-0.000149188	7.79643e-07
2	0	0	1	1	110.018	-0.375747	-0.375951	-0.00210052	2	-0.000149541	7.89694e-07
2	0	0	0	1	110.184	-0.379079	-0.379279	-0.0021092	2	-0.000149895	7.99975e-07
2	0	0	1	1	110.351	-0.382411	-0.382644	-0.00211908	2	-0.000150251	8.10853e-07
2	0	0	0	1	110.517	-0.385743	-0.385971	-0.00212924	2	-0.000150608	8.21825e-07
2	0	0	1	1	110.684	-0.389075	-0.389294	-0.00213898	2	-0.000150968	8.32691e-07
2	0	0	0	1	110.851	-0.392407	-0.392628	-0.00214982	2	-0.000151328	8.44082e-07
2	0	0	1	1	111.017	-0.395739	-0.395961	-0.00216106	2	-0.000151691	8.55695e-07
2	0	0	0	1	111.184	-0.399071	-0.399308	-0.00217224	2	-0.000152055	8.67393e-07
2	0	0	1	1	111.35	-0.402403	-0.402622	-0.00218509	2	-0.000152422	8.79767e-07
2	0	0	0	1	111.517	-0.405735	-0.405933	-0.0021975	2	-0.00015279	8.92036e-07
2	0	0	1	1	111.684	-0.409067	-0.40927	-0.00221032	2	-0.000153161	9.04619e-07
2	0	0	0	1	111.85	-0.412399	-0.412594	-0.00222336	2	-0.000153534	9.17345e-07
2	0	0	1	1	112.017	-0.415731	-0.415942	-0.00223783	2	-0.000153909	9.3081e-07
2	0	0	0	1	112.183	-0.419063	-0.419274	-0.0022527	2	-0.000154287	9.44499e-07
2	0	0	1	1	112.35	-0.422395	-0.422624	-0.00226594	2	-0.000154667	9.57641e-07
2	0	0	0	1	112.517	-0.425727	-0.425943	-0.00228151	2	-0.000155049	9.71792e-07
2	0	0	1	1	112.683	-0.429059	-0.429251	-0.00229745	2	-0.000155434	9.86182e-07
2	0	0	0	1	112.85	-0.432391	-0.432576	-0.00231314	2	-0.000155822	1.00061e-06
2	0	0	1	1	113.016	-0.435723	-0.43591	-0.00232975	2	-0.000156212	1.01556e-06
2	0	0	0	1	113.183	-0.439055	-0.439249	-0.00234778	2	-0.000156605	1.03126e-06
2	0	0	1	1	113.35	-0.442387	-0.442588	-0.00236635	2	-0.000157002	1.04732e-06
2	0	0	0	1	113.516	-0.445719	-0.445912	-0.002386	2	-0.000157401	1.06394e-06
2	0	0	1	1	113.683	-0.449051	-0.449243	-0.00240694	2	-0.000157804	1.0813e-06
2	0	0	0	1	113.849	-0.452383	-0.452561	-0.00242618	2	-0.00015821	1.09799e-06
2	0	0	1	1	114.016	-0.455715	-0.455904	-0.00244714	2	-0.00015862	1.11566e-06
2	0	0	0	1	114.183	-0.459047	-0.459244	-0.00246901	2	-0.000159033	1.13388e-06
2	0	0	1	1	114.349	-0.462379	-0.462563	-0.00249125	2	-0.00015945	1.15236e-06
2	0	0	0	1	114.516	-0.465711	-0.465906	-0.00251331	2	-0.000159871	1.17097e-06
2	0	0	1	1	114.682	-0.469043	-0.469257	-0.00253639	2	-0.000160295	1.19022e-06
2	0	0	0	1	114.849	-0.472375	-0.472586	-0.00255933	2	-0.000160723	1.20951e-06
2	0	0	1	1	115.016	-0.475707	-0.475901	-0.00258328	2	-0.000161155	1.22938e-06
2	0	0	0	1	115.182	-0.479039	-0.479247	-0.00260601	2	-0.000161591	1.24892e-06
2	0	0	1	1	115.349	-0.482371	-0.482604	-0.00262987	2	-0.000162031	1.26918e-06
2	0	0	0	1	115.515	-0.485703	-0.48592	-0.00265375	2	-0.000162475	1.28951e-06
2	0	0	1	1	115.682	-0.489035	-0.48925	-0.00267946	2	-0.000162923	1.31093e-06
2	0	0	0	1	115.849	-0.492367	-0.492572	-0.00270514	2	-0.000163375	1.33247e-06
2	0	0	1	1	116.015	-0.495699	-0.495899	-0.00273014	2	-0.000163832	1.35388e-06
2	0	0	0	1	116.182	-0.499031	-0.499238	-0.00275667	2	-0.000164292	1.37624e-06
2	0	0	1	1	116.348	-0.502363	-0.502574	-0.00278295	2	-0.000164758	1.39864e-06
2	0	0	0	1	116.515	-0.505695	-0.505918	-0.00280959	2	-0.000165227	1.42142e-06
2	0	0	1	1	116.682	-0.509027	-0.509257	-0.00283697	2	-0.000165701	1.44475e-06
2	0	0	1	1	116.848	-0.512361	-0.512572	-0.00286533	2	-0.00016618	1.46869e-06
2	0	0	0	1	117.015	-0.515693	-0.515917	-0.00289295	2	-0.000166664	1.49252e-06
2	0	0	1	1	117.181	-0.519025	-0.519242	-0.00292303	2	-0.000167152	1.51776e-06
2	0	0	0	1	117.348	-0.522357	-0.522565	-0.00295367	2	-0.000167646	1.54348e-06
2	0	0	1	1	117.515	-0.525689	-0.525889	-0.002985	2	-0.000168144	1.56978e-06
2	0	0	0	1	117.681	-0.529021	-0.52924	-0.00301596	2	-0.000168648	1.59617e-06
2	0	0	1	1	117.848	-0.532353	-0.53256	-0.0030467	2	-0.000169156	1.62255e-06
2	0	0	0	1	118.014	-0.535685	-0.535869	-0.00307835	2	-0.000169671	1.64959e-06
2	0	0	1	1	118.181	-0.539017	-0.539201	-0.00311107	2	-0.00017019	1.67749e-06
2	0	0	0	1	118.348	-0.542349	-0.542557	-0.00314523	2	-0.000170715	1.70647e-06
2	0	0	1	1	118.514	-0.545681	-0.545879	-0.00317837	2	-0.000171246	1.73501e-06
2	0	0	0	1	118.681	-0.549013	-0.549197	-0.00321203	2	-0.000171782	1.76404e-06
2	0	0	1	1	118.847	-0.552345	-0.55254	-0.00324745	2	-0.000172324	1.79434e-06
2	0	0	0	1	119.014	-0.555677	-0.555885	-0.00328284	2	-0.000172872	1.82488e-06
2	0	0	1	1	119.181	-0.559009	-0.559206	-0.00332003	2	-0.000173426	1.85658e-06
2	0	0	0	1	119.347	-0.562341	-0.562549	-0.00335593	2	-0.000173986	1.88787e-06
2	0	0	1	1	119.514	-0.565673	-0.565908	-0.00339339	2	-0.000174552	1.92035e-06
2	0	0	0	1	119.68	-0.569005	-0.569215	-0.00342995	2	-0.000175124	1.95238e-06
2	0	0	1	1	119.847	-0.572339	-0.572557	-0.00346809	2	-0.000175703	1.98568e-06
2	0	0	0	1	120.014	-0.575671	-0.575893	-0.00350576	2	-0.000176288	2.01894e-06
2	0	0	1	1	120.18	-0.579003	-0.579212	-0.00354502	2	-0.000176879	2.05332e-06
2	0	0	0	1	120.347	-0.582335	-0.582527	-0.00358439	2	-0.000177477	2.08801e-06
2	0	0	1	1	120.514	-0.585667	-0.585873	-0.00362368	2	-0.000178081	2.12301e-06
2	0	0	0	1	120.68	-0.588999	-0.589215	-0.00366412	2	-0.000178693	2.15895e-06
2	0	0	1	1	120.847	-0.592331	-0.592539	-0.00370511	2	-0.00017931	2.19542e-06
2	0	0	0	1	121.013	-0.595663	-0.595865	-0.00374548	2	-0.000179935	2.2318e-06
2	0	0	1	1	121.163	-0.598661	-0.598851	-0.00378398	2	-0.000180503	2.26604e-06
2	0	0	0	1	121.222	-0.60016	-0.600363	-0.00395194	2	-0.000180726	2.3726e-06