File: TAP_Report/Data/MB_SHU/100 uM MB 10mM PB Second ITO_05_CV_C01_2.mpt
EC-Lab ASCII FILE
Nb header lines : 53

Cyclic Voltammetry

Run on channel : 1 (SN 0696)
User :
Electrode connection : standard
Ewe ctrl range : min = -10.00 V, max = 10.00 V
Ewe,I filtering : 50 kHz
Channel : Grounded
Acquisition started on : 05/17/2017 12:14:48
Saved on :
	File : 100 uM MB 10mM PB Second ITO_05_CV_C01.mpr
	Directory : \\userfs\st659\w2k\EC-Lab\Data\ITO Characterisation 17-5-17\
	Host : 144.32.136.43
Device : SP-300 (SN 0182)
Address : USB
EC-Lab for windows v10.44 (software)
Internet server v10.44 (firmware)
Command interpretor v10.44 (firmware)
Electrode material :
Initial state :
Electrolyte :
Comments :
Cable : standard
Electrode surface area : 0.001 cm²
Characteristic mass : 0.001 g
Equivalent Weight : 0.000 g/eq.
Density : 0.000 g/cm3
Ei (V)              0.000
vs.                 Eoc
dE/dt               500.000
dE/dt unit          mV/s
E1 (V)              0.100
vs.                 Ref
Step percent        50
N                   10
E range min (V)     -10.000
E range max (V)     10.000
I Range             Auto
I Range min         Unset
I Range max         Unset
I Range init        Unset
Bandwidth           8
E2 (V)              -0.600
vs.                 Ref
nc cycles           2
Reverse Scan        1
Ef (V)              0.000
vs.                 Eoc

mode	ox/red	error	control changes	counter inc.	time/s	control/V	Ewe/V	<I>/mA	cycle number	(Q-Qo)/C	P/W
2	1	0	0	1	409.789	-0.60016	-0.600481	-0.00871451	2	-8.11474e-06	5.2329e-06
2	1	0	1	1	409.793	-0.598361	-0.59857	-0.00744039	2	-8.1419e-06	4.4536e-06
2	1	0	1	1	409.799	-0.594962	-0.595176	-0.0065804	2	-8.18906e-06	3.91649e-06
2	1	0	0	1	409.806	-0.591664	-0.591875	-0.00618549	2	-8.23089e-06	3.66104e-06
2	1	0	1	1	409.813	-0.588365	-0.588566	-0.00590026	2	-8.2705e-06	3.47269e-06
2	1	0	1	1	409.819	-0.584966	-0.585169	-0.00565378	2	-8.30951e-06	3.30841e-06
2	1	0	0	1	409.826	-0.581667	-0.581844	-0.00544583	2	-8.34588e-06	3.16862e-06
2	1	0	1	1	409.833	-0.578369	-0.578566	-0.00526519	2	-8.38098e-06	3.04626e-06
2	1	0	1	1	409.839	-0.57497	-0.575154	-0.00509329	2	-8.41594e-06	2.92943e-06
2	1	0	0	1	409.846	-0.571671	-0.571856	-0.00493554	2	-8.4488e-06	2.82242e-06
2	1	0	1	1	409.853	-0.568372	-0.568572	-0.00480398	2	-8.4807e-06	2.73141e-06
2	1	0	1	1	409.859	-0.564974	-0.56516	-0.00466697	2	-8.51264e-06	2.63758e-06
2	1	0	0	1	409.866	-0.561675	-0.561847	-0.00454112	2	-8.54278e-06	2.55141e-06
2	1	0	1	1	409.873	-0.558376	-0.558569	-0.00442977	2	-8.57213e-06	2.47433e-06
2	1	0	1	1	409.879	-0.554978	-0.555189	-0.00431225	2	-8.6016e-06	2.39411e-06
2	1	0	0	1	409.886	-0.551679	-0.551844	-0.00420546	2	-8.62948e-06	2.32076e-06
2	1	0	1	1	409.893	-0.54838	-0.548532	-0.00411075	2	-8.65667e-06	2.25488e-06
2	1	0	1	1	409.899	-0.544981	-0.545149	-0.00401429	2	-8.68404e-06	2.18839e-06
2	1	0	0	1	409.906	-0.541683	-0.541845	-0.00392403	2	-8.71e-06	2.12621e-06
2	1	0	1	1	409.913	-0.538384	-0.53853	-0.00383479	2	-8.73536e-06	2.06515e-06
2	1	0	1	1	409.919	-0.535007	-0.535155	-0.00374832	2	-8.76052e-06	2.00593e-06
2	1	0	0	1	409.926	-0.531653	-0.531823	-0.003676	2	-8.78514e-06	1.95498e-06
2	1	0	1	1	409.933	-0.528354	-0.528535	-0.00360045	2	-8.80893e-06	1.90297e-06
2	1	0	0	1	409.939	-0.525056	-0.52523	-0.00352937	2	-8.83222e-06	1.85373e-06
2	1	0	0	1	409.946	-0.521657	-0.521829	-0.00345297	2	-8.85571e-06	1.80186e-06
2	1	0	1	1	409.953	-0.518358	-0.518527	-0.00338404	2	-8.87805e-06	1.75472e-06
2	1	0	0	1	409.959	-0.515059	-0.515232	-0.00332546	2	-8.89994e-06	1.71339e-06
2	1	0	0	1	409.966	-0.511661	-0.511839	-0.00325746	2	-8.92208e-06	1.6673e-06
2	1	0	1	1	409.973	-0.508362	-0.508558	-0.00319649	2	-8.94315e-06	1.6256e-06
2	1	0	0	1	409.979	-0.505063	-0.505252	-0.00313944	2	-8.9638e-06	1.58621e-06
2	1	0	0	1	409.986	-0.501665	-0.501863	-0.0030738	2	-8.98467e-06	1.54263e-06
2	1	0	1	1	409.993	-0.498366	-0.498524	-0.00301618	2	-9.00453e-06	1.50364e-06
2	1	0	0	1	409.999	-0.495067	-0.495232	-0.00296494	2	-9.02402e-06	1.46833e-06
2	1	0	0	1	410.006	-0.491668	-0.491836	-0.00290948	2	-9.04374e-06	1.43099e-06
2	1	0	1	1	410.013	-0.48837	-0.488549	-0.00286122	2	-9.06255e-06	1.39785e-06
2	1	0	0	1	410.019	-0.485071	-0.485248	-0.00280553	2	-9.08101e-06	1.36138e-06
2	1	0	0	1	410.026	-0.481672	-0.481847	-0.0027556	2	-9.09967e-06	1.32778e-06
2	1	0	1	1	410.033	-0.478373	-0.478542	-0.00270171	2	-9.11745e-06	1.29288e-06
2	1	0	0	1	410.039	-0.475075	-0.475249	-0.00265603	2	-9.13489e-06	1.26228e-06
2	1	0	0	1	410.046	-0.471676	-0.471861	-0.00261135	2	-9.15256e-06	1.23219e-06
2	1	0	1	1	410.053	-0.468377	-0.468558	-0.00256287	2	-9.1694e-06	1.20085e-06
2	1	0	0	1	410.059	-0.465078	-0.465241	-0.00251134	2	-9.1859e-06	1.16838e-06
2	1	0	0	1	410.066	-0.46168	-0.461856	-0.00247418	2	-9.2026e-06	1.14272e-06
2	1	0	1	1	410.073	-0.458381	-0.45854	-0.0024304	2	-9.21855e-06	1.11443e-06
2	1	0	0	1	410.079	-0.455082	-0.455238	-0.00238334	2	-9.23419e-06	1.08499e-06
2	1	0	0	1	410.086	-0.451684	-0.451841	-0.00234189	2	-9.25001e-06	1.05816e-06
2	1	0	1	1	410.093	-0.448363	-0.448521	-0.00229552	2	-9.26509e-06	1.02959e-06
2	1	0	0	1	410.099	-0.445053	-0.44521	-0.00225863	2	-9.27989e-06	1.00557e-06
2	1	0	1	1	410.106	-0.441754	-0.441927	-0.0022192	2	-9.29443e-06	9.80723e-07
2	1	0	1	1	410.113	-0.438355	-0.438528	-0.00217798	2	-9.30914e-06	9.55106e-07
2	1	0	0	1	410.119	-0.435057	-0.435219	-0.00213609	2	-9.32315e-06	9.29669e-07
2	1	0	1	1	410.126	-0.431758	-0.431928	-0.00210011	2	-9.33689e-06	9.07099e-07
2	1	0	1	1	410.133	-0.428359	-0.428526	-0.00205916	2	-9.3508e-06	8.82402e-07
2	1	0	0	1	410.139	-0.42506	-0.42523	-0.00202374	2	-9.36405e-06	8.60553e-07
2	1	0	1	1	410.146	-0.421762	-0.421949	-0.00198443	2	-9.37703e-06	8.37329e-07
2	1	0	1	1	410.153	-0.418363	-0.418549	-0.00194814	2	-9.39015e-06	8.15392e-07
2	1	0	0	1	410.159	-0.415064	-0.415252	-0.0019104	2	-9.40265e-06	7.93296e-07
2	1	0	1	1	410.166	-0.411765	-0.411938	-0.00187141	2	-9.41488e-06	7.70905e-07
2	1	0	1	1	410.173	-0.408367	-0.408534	-0.00183705	2	-9.42724e-06	7.50499e-07
2	1	0	0	1	410.179	-0.405068	-0.405241	-0.00179904	2	-9.43901e-06	7.29046e-07
2	1	0	1	1	410.186	-0.401769	-0.401961	-0.00176493	2	-9.45054e-06	7.09434e-07
2	1	0	1	1	410.193	-0.398371	-0.398554	-0.00172678	2	-9.46217e-06	6.88215e-07
2	1	0	0	1	410.199	-0.395072	-0.395259	-0.00169403	2	-9.47322e-06	6.69581e-07
2	1	0	1	1	410.206	-0.391773	-0.391956	-0.00165421	2	-9.48403e-06	6.48378e-07
2	1	0	1	1	410.213	-0.388374	-0.388547	-0.00162233	2	-9.49492e-06	6.3035e-07
2	1	0	0	1	410.219	-0.385076	-0.385257	-0.00158241	2	-9.50527e-06	6.09634e-07
2	1	0	1	1	410.226	-0.381777	-0.381966	-0.00154687	2	-9.51536e-06	5.90852e-07
2	1	0	1	1	410.233	-0.378378	-0.378543	-0.0015121	2	-9.52552e-06	5.72396e-07
2	1	0	0	1	410.239	-0.375079	-0.375252	-0.00148126	2	-9.53518e-06	5.55845e-07
2	1	0	1	1	410.246	-0.371781	-0.371938	-0.00144493	2	-9.54459e-06	5.37423e-07
2	1	0	1	1	410.253	-0.368382	-0.368524	-0.0014082	2	-9.55404e-06	5.18954e-07
2	1	0	0	1	410.259	-0.365083	-0.365246	-0.00137796	2	-9.56301e-06	5.03293e-07
2	1	0	1	1	410.266	-0.361773	-0.361941	-0.00133914	2	-9.57174e-06	4.84688e-07
2	1	0	0	1	410.272	-0.358452	-0.358621	-0.00130444	2	-9.58022e-06	4.67799e-07
2	1	0	0	1	410.279	-0.355054	-0.35524	-0.00127294	2	-9.58873e-06	4.52197e-07
2	1	0	1	1	410.286	-0.351755	-0.351938	-0.00123758	2	-9.59679e-06	4.35552e-07
2	1	0	0	1	410.292	-0.348456	-0.348641	-0.00120132	2	-9.6046e-06	4.1883e-07
2	1	0	0	1	410.299	-0.345058	-0.345236	-0.00116846	2	-9.6124e-06	4.03395e-07
2	1	0	1	1	410.306	-0.341759	-0.341932	-0.00113189	2	-9.61976e-06	3.8703e-07
2	1	0	0	1	410.312	-0.33846	-0.338606	-0.00108794	2	-9.62685e-06	3.68383e-07
2	1	0	0	1	410.319	-0.335061	-0.335181	-0.00105626	2	-9.63391e-06	3.5404e-07
2	1	0	1	1	410.326	-0.331763	-0.331895	-0.00102283	2	-9.64056e-06	3.39471e-07
2	1	0	0	1	410.332	-0.328464	-0.328602	-0.000985719	2	-9.64694e-06	3.23909e-07
2	1	0	0	1	410.339	-0.325065	-0.325204	-0.000950036	2	-9.65328e-06	3.08955e-07
2	1	0	1	1	410.346	-0.321766	-0.321905	-0.000911804	2	-9.6592e-06	2.93514e-07
2	1	0	0	1	410.352	-0.318468	-0.318608	-0.000881008	2	-9.66487e-06	2.80696e-07
2	1	0	0	1	410.359	-0.315069	-0.315226	-0.000835452	2	-9.67045e-06	2.63356e-07
2	1	0	1	1	410.366	-0.31177	-0.311919	-0.000797833	2	-9.67561e-06	2.48859e-07
2	1	0	0	1	410.372	-0.308472	-0.308617	-0.00075437	2	-9.68049e-06	2.32811e-07
2	1	0	0	1	410.379	-0.305073	-0.305219	-0.000710596	2	-9.68523e-06	2.16888e-07
2	1	0	1	1	410.386	-0.301774	-0.30193	-0.000673885	2	-9.68957e-06	2.03466e-07
2	1	0	0	1	410.392	-0.298475	-0.298615	-0.00062622	2	-9.69361e-06	1.86999e-07
2	1	0	0	1	410.399	-0.295077	-0.295211	-0.0005688	2	-9.69743e-06	1.67916e-07
2	1	0	1	1	410.406	-0.291778	-0.291901	-0.000532659	2	-9.70084e-06	1.55483e-07
2	1	0	0	1	410.412	-0.288479	-0.288603	-0.000482609	2	-9.70394e-06	1.39282e-07
2	1	0	0	1	410.419	-0.28508	-0.285198	-0.000424751	2	-9.70677e-06	1.21138e-07
2	1	0	1	1	410.426	-0.281782	-0.281886	-0.000374703	2	-9.70918e-06	1.05624e-07
2	1	0	0	1	410.432	-0.278483	-0.278611	-0.000322173	2	-9.71123e-06	8.97609e-08
2	1	0	0	1	410.439	-0.275084	-0.275224	-0.000263062	2	-9.71297e-06	7.24009e-08
2	1	0	1	1	410.446	-0.271752	-0.271869	-0.000187577	2	-9.71422e-06	5.09966e-08
2	1	0	0	1	410.452	-0.268453	-0.268585	-0.000132714	2	-9.71504e-06	3.5645e-08
2	1	0	1	1	410.459	-0.265155	-0.265295	-6.03729e-05	2	-9.71543e-06	1.60166e-08
2	1	0	1	1	410.466	-0.261756	-0.261877	1.70143e-05	2	-9.71533e-06	4.45565e-09
2	1	0	0	1	410.472	-0.258457	-0.258603	9.13594e-05	2	-9.71475e-06	2.36259e-08
2	1	0	1	1	410.479	-0.255159	-0.2553	0.000173161	2	-9.71363e-06	4.42079e-08
2	1	0	1	1	410.486	-0.25176	-0.251897	0.000265093	2	-9.7119e-06	6.6776e-08
2	1	0	0	1	410.492	-0.248461	-0.248602	0.00035667	2	-9.70961e-06	8.86689e-08
2	1	0	1	1	410.499	-0.245162	-0.245312	0.000458926	2	-9.70667e-06	1.1258e-07
2	1	0	1	1	410.506	-0.241764	-0.241898	0.00056781	2	-9.70293e-06	1.37352e-07
2	1	0	0	1	410.512	-0.238465	-0.238609	0.000679601	2	-9.69857e-06	1.62159e-07
2	1	0	1	1	410.519	-0.235166	-0.235315	0.000801577	2	-9.69344e-06	1.88623e-07
2	1	0	1	1	410.526	-0.231767	-0.231942	0.000923043	2	-9.68731e-06	2.14093e-07
2	1	0	0	1	410.532	-0.228469	-0.228621	0.00105904	2	-9.68052e-06	2.42119e-07
2	1	0	1	1	410.539	-0.22517	-0.225338	0.00120804	2	-9.67279e-06	2.72218e-07
2	1	0	1	1	410.546	-0.221771	-0.221925	0.001365	2	-9.66379e-06	3.02929e-07
2	1	0	0	1	410.552	-0.218473	-0.218615	0.00152001	2	-9.65403e-06	3.32297e-07
2	1	0	1	1	410.559	-0.215174	-0.215334	0.0016828	2	-9.6432e-06	3.62364e-07
2	1	0	1	1	410.566	-0.211775	-0.211925	0.0018715	2	-9.63085e-06	3.96617e-07
2	1	0	0	1	410.572	-0.208476	-0.208611	0.00205983	2	-9.61763e-06	4.29704e-07
2	1	0	1	1	410.579	-0.205178	-0.205304	0.00224053	2	-9.60318e-06	4.59989e-07
2	1	0	1	1	410.586	-0.201779	-0.20189	0.00244858	2	-9.58698e-06	4.94343e-07
2	1	0	0	1	410.592	-0.19848	-0.198589	0.00264435	2	-9.56992e-06	5.2514e-07
2	1	0	1	1	410.599	-0.195181	-0.195313	0.00285316	2	-9.5515e-06	5.57259e-07
2	1	0	1	1	410.606	-0.191783	-0.19192	0.00307151	2	-9.53108e-06	5.89484e-07
2	1	0	0	1	410.612	-0.188484	-0.188645	0.00329443	2	-9.50983e-06	6.21478e-07
2	1	0	1	1	410.619	-0.185163	-0.185319	0.0035245	2	-9.48707e-06	6.53157e-07
2	1	0	0	1	410.626	-0.181853	-0.182009	0.00375265	2	-9.4628e-06	6.83017e-07
2	1	0	0	1	410.632	-0.178454	-0.178596	0.00398479	2	-9.43624e-06	7.1167e-07
2	1	0	1	1	410.639	-0.175156	-0.175296	0.00420997	2	-9.40894e-06	7.37991e-07
2	1	0	0	1	410.646	-0.171857	-0.172002	0.0044308	2	-9.38017e-06	7.62109e-07
2	1	0	0	1	410.652	-0.168458	-0.168588	0.0046457	2	-9.34904e-06	7.8321e-07
2	1	0	1	1	410.659	-0.165159	-0.165295	0.00486262	2	-9.31742e-06	8.03768e-07
2	1	0	0	1	410.666	-0.161861	-0.161991	0.00506192	2	-9.28442e-06	8.19988e-07
2	1	0	0	1	410.672	-0.158462	-0.158569	0.00524968	2	-9.24908e-06	8.32435e-07
2	1	0	1	1	410.679	-0.155163	-0.155276	0.0054282	2	-9.21358e-06	8.42867e-07
2	1	0	0	1	410.686	-0.151865	-0.151972	0.00557389	2	-9.17703e-06	8.47072e-07
2	1	0	0	1	410.692	-0.148466	-0.148559	0.00571368	2	-9.13839e-06	8.48821e-07
2	1	0	1	1	410.699	-0.145167	-0.145295	0.005822	2	-9.1001e-06	8.45907e-07
2	1	0	0	1	410.706	-0.141868	-0.141981	0.00591413	2	-9.06113e-06	8.39694e-07
2	1	0	0	1	410.712	-0.13847	-0.138599	0.0059906	2	-9.0204e-06	8.30293e-07
2	1	0	1	1	410.719	-0.135171	-0.135282	0.00603031	2	-8.9805e-06	8.15792e-07
2	1	0	0	1	410.726	-0.131872	-0.131986	0.00605906	2	-8.94037e-06	7.99712e-07
2	1	0	0	1	410.732	-0.128473	-0.1286	0.00607208	2	-8.89888e-06	7.80867e-07
2	1	0	1	1	410.739	-0.125175	-0.125266	0.00605256	2	-8.85866e-06	7.58178e-07
2	1	0	0	1	410.746	-0.121876	-0.121982	0.00600287	2	-8.81864e-06	7.32244e-07
2	1	0	0	1	410.752	-0.118477	-0.118575	0.00595042	2	-8.77775e-06	7.05571e-07
2	1	0	1	1	410.759	-0.115179	-0.115278	0.00587724	2	-8.73849e-06	6.77517e-07
2	1	0	0	1	410.766	-0.11188	-0.111967	0.0057908	2	-8.69974e-06	6.48377e-07
2	1	0	0	1	410.772	-0.108481	-0.108568	0.00569202	2	-8.66045e-06	6.1797e-07
2	1	0	1	1	410.779	-0.105182	-0.105291	0.0055856	2	-8.62302e-06	5.88113e-07
2	1	0	0	1	410.786	-0.101884	-0.101969	0.00549047	2	-8.58625e-06	5.59857e-07
2	1	0	0	1	410.792	-0.0985182	-0.0986217	0.00538366	2	-8.54959e-06	5.30946e-07
2	1	0	1	1	410.799	-0.0951528	-0.0952569	0.00526868	2	-8.51369e-06	5.01878e-07
2	1	0	0	1	410.806	-0.0918541	-0.0919394	0.00515697	2	-8.47907e-06	4.74129e-07
2	1	0	1	1	410.812	-0.0885554	-0.0886447	0.00503548	2	-8.4452e-06	4.46368e-07
2	1	0	1	1	410.819	-0.0851566	-0.0852729	0.00491921	2	-8.41113e-06	4.19475e-07
2	1	0	0	1	410.826	-0.0818579	-0.0819677	0.00482177	2	-8.37878e-06	3.95229e-07
2	1	0	1	1	410.832	-0.0785592	-0.0786791	0.00471869	2	-8.34707e-06	3.71263e-07
2	1	0	1	1	410.839	-0.0751605	-0.07529	0.00461909	2	-8.3151e-06	3.47771e-07
2	1	0	0	1	410.846	-0.0718617	-0.0719702	0.0045318	2	-8.28468e-06	3.26155e-07
2	1	0	1	1	410.852	-0.068563	-0.0686687	0.0044443	2	-8.25484e-06	3.05184e-07
2	1	0	1	1	410.859	-0.0651643	-0.0652649	0.00435632	2	-8.2247e-06	2.84315e-07
2	1	0	0	1	410.866	-0.0618655	-0.061988	0.00426688	2	-8.19603e-06	2.64496e-07
2	1	0	1	1	410.872	-0.0585668	-0.0586924	0.0042001	2	-8.16787e-06	2.46514e-07
2	1	0	1	1	410.879	-0.0551681	-0.0552942	0.00413153	2	-8.13932e-06	2.28449e-07
2	1	0	0	1	410.886	-0.0518693	-0.0520033	0.0040581	2	-8.11207e-06	2.11035e-07
2	1	0	1	1	410.892	-0.0485706	-0.0486988	0.0040068	2	-8.08522e-06	1.95126e-07
2	1	0	1	1	410.899	-0.0451719	-0.0453107	0.003943	2	-8.05798e-06	1.7866e-07
2	1	0	0	1	410.906	-0.0418731	-0.042002	0.00389034	2	-8.03192e-06	1.63402e-07
2	1	0	1	1	410.912	-0.0385744	-0.038689	0.00383601	2	-8.00619e-06	1.48411e-07
2	1	0	1	1	410.919	-0.0351757	-0.0352994	0.00378412	2	-7.98004e-06	1.33577e-07
2	1	0	0	1	410.926	-0.031877	-0.0319888	0.00373566	2	-7.95501e-06	1.19499e-07
2	1	0	1	1	410.932	-0.0285782	-0.0286722	0.00369724	2	-7.93024e-06	1.06008e-07
2	1	0	1	1	410.939	-0.0251795	-0.025287	0.00365037	2	-7.90502e-06	9.23069e-08
2	1	0	0	1	410.946	-0.0218808	-0.0219906	0.00361749	2	-7.88081e-06	7.95509e-08
2	1	0	1	1	410.952	-0.018582	-0.0186868	0.00357238	2	-7.85685e-06	6.67563e-08
2	1	0	1	1	410.959	-0.0151833	-0.0152959	0.00354528	2	-7.83242e-06	5.42283e-08
2	1	0	0	1	410.966	-0.0118735	-0.0120068	0.00350973	2	-7.80892e-06	4.21408e-08
2	1	0	1	1	410.972	-0.00855252	-0.0086588	0.00348151	2	-7.78562e-06	3.01457e-08
2	1	0	0	1	410.979	-0.00525378	-0.00536845	0.00344894	2	-7.76252e-06	1.85155e-08
2	1	0	0	1	410.986	-0.00185507	-0.00198997	0.00342043	2	-7.73893e-06	6.80655e-09
2	1	0	1	1	410.992	0.00144924	0.00135672	0.00340033	2	-7.71621e-06	4.61329e-09
2	1	0	0	1	410.999	0.00474241	0.00465152	0.00336785	2	-7.69363e-06	1.56656e-08
2	1	0	0	1	411.006	0.00814111	0.00805442	0.00334641	2	-7.67056e-06	2.69534e-08
2	1	0	1	1	411.012	0.0114399	0.0113542	0.00331833	2	-7.64834e-06	3.76769e-08
2	1	0	0	1	411.019	0.0147386	0.0146681	0.0033026	2	-7.62625e-06	4.84427e-08
2	1	0	0	1	411.026	0.0181373	0.0180666	0.00328046	2	-7.60362e-06	5.9267e-08
2	1	0	1	1	411.032	0.021436	0.0213597	0.00325675	2	-7.58183e-06	6.95631e-08
2	1	0	0	1	411.039	0.0247348	0.0246594	0.00324358	2	-7.56014e-06	7.99849e-08
2	1	0	0	1	411.046	0.0281335	0.0280456	0.00322043	2	-7.53792e-06	9.03189e-08
2	1	0	1	1	411.052	0.0314322	0.0313413	0.00320878	2	-7.51648e-06	1.00567e-07
2	1	0	0	1	411.059	0.034731	0.0346545	0.00319779	2	-7.49511e-06	1.10818e-07
2	1	0	0	1	411.066	0.0381297	0.0380483	0.00318037	2	-7.47318e-06	1.21007e-07
2	1	0	1	1	411.072	0.0414284	0.0413354	0.0031642	2	-7.45203e-06	1.30794e-07
2	1	0	0	1	411.079	0.0447271	0.0446646	0.00315927	2	-7.43093e-06	1.41108e-07
2	1	0	0	1	411.086	0.0481259	0.0480731	0.00314138	2	-7.40928e-06	1.51016e-07
2	1	0	1	1	411.092	0.0514246	0.0513552	0.00313003	2	-7.38835e-06	1.60743e-07
2	1	0	0	1	411.099	0.0547233	0.0546697	0.00311925	2	-7.36748e-06	1.70528e-07
2	1	0	0	1	411.106	0.058122	0.058085	0.00310954	2	-7.34605e-06	1.80618e-07
2	1	0	1	1	411.112	0.0614208	0.0613572	0.00309727	2	-7.32535e-06	1.9004e-07
2	1	0	0	1	411.119	0.0647195	0.0646491	0.00308999	2	-7.3047e-06	1.99765e-07
2	1	0	0	1	411.126	0.0681182	0.0680436	0.00308254	2	-7.28348e-06	2.09747e-07
2	1	0	1	1	411.132	0.071417	0.0713557	0.00307745	2	-7.26292e-06	2.19593e-07
2	1	0	0	1	411.139	0.0747157	0.0746417	0.00306564	2	-7.24241e-06	2.28824e-07
2	1	0	1	1	411.145	0.0780478	0.0779905	0.00307074	2	-7.22191e-06	2.39489e-07
2	1	0	1	1	411.152	0.0814465	0.0813758	0.00305784	2	-7.20084e-06	2.48834e-07
2	1	0	0	1	411.159	0.0847452	0.0846699	0.00305334	2	-7.18046e-06	2.58526e-07
2	1	0	1	1	411.165	0.0880439	0.087954	0.00304593	2	-7.1601e-06	2.67902e-07
2	1	0	1	1	411.172	0.0914427	0.0913717	0.00303797	2	-7.13917e-06	2.77585e-07
2	1	0	0	1	411.179	0.0947414	0.0946593	0.00303842	2	-7.11889e-06	2.87614e-07
2	1	0	1	1	411.185	0.0980401	0.0979565	0.0030357	2	-7.0986e-06	2.97367e-07
2	0	0	1	1	411.19	0.0999061	0.099807	0.00295975	2	-7.08577e-06	2.95404e-07
2	0	0	0	1	411.193	0.0980735	0.0979283	0.00200997	2	-7.07834e-06	1.96833e-07
2	0	0	1	1	411.2	0.0947747	0.0946073	0.0016007	2	-7.06678e-06	1.51438e-07
2	0	0	1	1	411.207	0.091376	0.0912055	0.0014185	2	-7.05679e-06	1.29375e-07
2	0	0	0	1	411.213	0.0880773	0.0878935	0.00128337	2	-7.04812e-06	1.128e-07
2	0	0	1	1	411.22	0.0847785	0.0846152	0.00117561	2	-7.04026e-06	9.94742e-08
2	0	0	1	1	411.227	0.0813798	0.081211	0.00107405	2	-7.03287e-06	8.72245e-08
2	0	0	0	1	411.233	0.0780811	0.0779262	0.00098234	2	-7.02632e-06	7.655e-08
2	0	0	1	1	411.24	0.074749	0.0745964	0.00089393	2	-7.02038e-06	6.66839e-08
2	0	0	0	1	411.246	0.0714503	0.0712902	0.000824463	2	-7.01496e-06	5.87761e-08
2	0	0	0	1	411.253	0.0680516	0.0678955	0.000753033	2	-7.00985e-06	5.11275e-08
2	0	0	1	1	411.26	0.0647528	0.0646122	0.000687973	2	-7.00534e-06	4.44515e-08
2	0	0	0	1	411.266	0.0614541	0.0613266	0.000622231	2	-7.00126e-06	3.81593e-08
2	0	0	0	1	411.273	0.0580554	0.0579296	0.000563825	2	-6.99748e-06	3.26622e-08
2	0	0	1	1	411.28	0.0547566	0.0546037	0.000498871	2	-6.99422e-06	2.72402e-08
2	0	0	0	1	411.286	0.0514579	0.0513157	0.000444952	2	-6.99135e-06	2.2833e-08
2	0	0	0	1	411.293	0.0480592	0.0479265	0.000392407	2	-6.98876e-06	1.88067e-08
2	0	0	1	1	411.3	0.0447605	0.0445971	0.00033466	2	-6.9866e-06	1.49248e-08
2	0	0	0	1	411.306	0.0414617	0.0412837	0.00028858	2	-6.98479e-06	1.19136e-08
2	0	0	0	1	411.313	0.038063	0.0379042	0.000238326	2	-6.98325e-06	9.03356e-09
2	0	0	1	1	411.32	0.0347643	0.0346	0.00018771	2	-6.98207e-06	6.49476e-09
2	0	0	0	1	411.326	0.0314655	0.0312957	0.000144269	2	-6.98122e-06	4.515e-09
2	0	0	0	1	411.333	0.0280668	0.0278897	9.78605e-05	2	-6.98065e-06	2.7293e-09
2	0	0	1	1	411.34	0.0247681	0.0245911	5.18309e-05	2	-6.98039e-06	1.27458e-09
2	0	0	0	1	411.346	0.0214694	0.0213087	1.29363e-05	2	-6.98043e-06	2.75655e-10
2	0	0	0	1	411.353	0.0180707	0.0179033	-3.2798e-05	2	-6.98075e-06	5.87193e-10
2	0	0	1	1	411.36	0.0147719	0.0146276	-7.70004e-05	2	-6.98134e-06	1.12633e-09
2	0	0	0	1	411.366	0.0114732	0.011306	-0.000121094	2	-6.98223e-06	1.36909e-09
2	0	0	0	1	411.373	0.00807447	0.00789951	-0.000161876	2	-6.98344e-06	1.27874e-09
2	0	0	1	1	411.38	0.00477573	0.00461088	-0.000198602	2	-6.98486e-06	9.1573e-10
2	0	0	0	1	411.386	0.00147699	0.0012771	-0.000246457	2	-6.98659e-06	3.14752e-10
2	0	0	0	1	411.393	-0.00192172	-0.0021396	-0.000280703	2	-6.98864e-06	6.00592e-10
2	0	0	1	1	411.4	-0.00522046	-0.00544464	-0.000319306	2	-6.99085e-06	1.7385e-09
2	0	0	0	1	411.406	-0.0085192	-0.00873607	-0.000358434	2	-6.99334e-06	3.1313e-09
2	0	0	0	1	411.413	-0.0118961	-0.0121132	-0.000404758	2	-6.99614e-06	4.90291e-09
2	0	0	1	1	411.42	-0.01525	-0.0154423	-0.00043495	2	-6.99919e-06	6.71663e-09
2	0	0	0	1	411.426	-0.0185487	-0.018762	-0.000472855	2	-7.00243e-06	8.87171e-09
2	0	0	1	1	411.433	-0.0218475	-0.022042	-0.00050822	2	-7.0059e-06	1.12022e-08
2	0	0	1	1	411.44	-0.0252462	-0.0254204	-0.000548227	2	-7.00974e-06	1.39362e-08
2	0	0	0	1	411.446	-0.0285449	-0.0287361	-0.000587278	2	-7.01371e-06	1.68761e-08
2	0	0	1	1	411.453	-0.0318436	-0.0320477	-0.000625242	2	-7.01796e-06	2.00376e-08
2	0	0	1	1	411.46	-0.0352423	-0.0354532	-0.000662069	2	-7.02258e-06	2.34725e-08
2	0	0	0	1	411.466	-0.0385411	-0.0387464	-0.000698639	2	-7.0273e-06	2.70697e-08
2	0	0	1	1	411.473	-0.0418398	-0.0420609	-0.000737094	2	-7.03229e-06	3.10028e-08
2	0	0	1	1	411.48	-0.0452385	-0.0454508	-0.00077574	2	-7.03769e-06	3.5258e-08
2	0	0	0	1	411.486	-0.0485373	-0.0487598	-0.000812088	2	-7.04316e-06	3.95972e-08
2	0	0	1	1	411.493	-0.051836	-0.0520359	-0.000850219	2	-7.04889e-06	4.42419e-08
2	0	0	1	1	411.5	-0.0552347	-0.0554723	-0.000890319	2	-7.05505e-06	4.93881e-08
2	0	0	0	1	411.506	-0.0585335	-0.0587451	-0.000925723	2	-7.06128e-06	5.43817e-08
2	0	0	1	1	411.513	-0.0618322	-0.0620529	-0.000965509	2	-7.06776e-06	5.99127e-08
2	0	0	1	1	411.52	-0.0652309	-0.0654435	-0.00100693	2	-7.07471e-06	6.58969e-08
2	0	0	0	1	411.526	-0.0685297	-0.0687394	-0.00104454	2	-7.0817e-06	7.18008e-08
2	0	0	1	1	411.533	-0.0718284	-0.0720363	-0.00108943	2	-7.08899e-06	7.84781e-08
2	0	0	1	1	411.54	-0.0752271	-0.0754504	-0.00113289	2	-7.09679e-06	8.54769e-08
2	0	0	0	1	411.546	-0.0785258	-0.0787442	-0.0011754	2	-7.10464e-06	9.25559e-08
2	0	0	1	1	411.553	-0.0818246	-0.0820463	-0.00122234	2	-7.1128e-06	1.00288e-07
2	0	0	1	1	411.56	-0.0852233	-0.0854176	-0.00126506	2	-7.12151e-06	1.08058e-07
2	0	0	0	1	411.566	-0.088522	-0.0887215	-0.0013168	2	-7.13027e-06	1.16829e-07
2	0	0	1	1	411.573	-0.0918208	-0.0920059	-0.00136564	2	-7.13936e-06	1.25647e-07
2	0	0	1	1	411.58	-0.0952195	-0.0954257	-0.00142374	2	-7.1491e-06	1.35861e-07
2	0	0	0	1	411.586	-0.0985404	-0.0987469	-0.00148389	2	-7.15893e-06	1.46529e-07
2	0	0	1	1	411.593	-0.10185	-0.102049	-0.00153882	2	-7.16914e-06	1.57035e-07
2	0	0	0	1	411.6	-0.105149	-0.105359	-0.00159865	2	-7.17974e-06	1.68432e-07
2	0	0	0	1	411.606	-0.108548	-0.108737	-0.00166489	2	-7.19109e-06	1.81036e-07
2	0	0	1	1	411.613	-0.111846	-0.112037	-0.00173565	2	-7.20254e-06	1.94457e-07
2	0	0	0	1	411.62	-0.115145	-0.115319	-0.00181289	2	-7.2145e-06	2.09061e-07
2	0	0	0	1	411.626	-0.118544	-0.118738	-0.00189173	2	-7.22734e-06	2.2462e-07
2	0	0	1	1	411.633	-0.121843	-0.122027	-0.00198004	2	-7.24035e-06	2.41618e-07
2	0	0	0	1	411.64	-0.125141	-0.125343	-0.00207056	2	-7.25397e-06	2.5953e-07
2	0	0	0	1	411.646	-0.12854	-0.128745	-0.00217099	2	-7.26865e-06	2.79504e-07
2	0	0	1	1	411.653	-0.131839	-0.132055	-0.00227382	2	-7.28355e-06	3.0027e-07
2	0	0	0	1	411.66	-0.135138	-0.13534	-0.00238417	2	-7.29917e-06	3.22674e-07
2	0	0	0	1	411.666	-0.138536	-0.13876	-0.00250908	2	-7.31606e-06	3.4816e-07
2	0	0	1	1	411.673	-0.141835	-0.142048	-0.00263069	2	-7.33326e-06	3.73683e-07
2	0	0	0	1	411.68	-0.145134	-0.145357	-0.00276501	2	-7.35132e-06	4.01912e-07
2	0	0	0	1	411.686	-0.148532	-0.148747	-0.0029059	2	-7.37086e-06	4.32246e-07
2	0	0	1	1	411.693	-0.151831	-0.152036	-0.00305529	2	-7.39077e-06	4.64514e-07
2	0	0	0	1	411.7	-0.15513	-0.155336	-0.00321117	2	-7.4117e-06	4.98811e-07
2	0	0	0	1	411.706	-0.158529	-0.158751	-0.0033851	2	-7.43439e-06	5.37387e-07
2	0	0	1	1	411.713	-0.161827	-0.162043	-0.00355612	2	-7.45754e-06	5.76245e-07
2	0	0	0	1	411.72	-0.165126	-0.165365	-0.00372826	2	-7.48184e-06	6.16523e-07
2	0	0	0	1	411.726	-0.168525	-0.168768	-0.00392796	2	-7.50813e-06	6.62912e-07
2	0	0	1	1	411.733	-0.171824	-0.172054	-0.00411356	2	-7.53492e-06	7.07753e-07
2	0	0	0	1	411.74	-0.175122	-0.175349	-0.0043225	2	-7.56302e-06	7.57947e-07
2	0	0	0	1	411.746	-0.178521	-0.17873	-0.0045402	2	-7.59341e-06	8.11471e-07
2	0	0	1	1	411.753	-0.18182	-0.182066	-0.00475502	2	-7.62433e-06	8.65727e-07
2	0	0	0	1	411.76	-0.18513	-0.185377	-0.00496998	2	-7.65668e-06	9.2132e-07
2	0	0	1	1	411.766	-0.188451	-0.188684	-0.0051948	2	-7.69049e-06	9.80175e-07
2	0	0	1	1	411.773	-0.191849	-0.192086	-0.00541723	2	-7.72686e-06	1.04058e-06
2	0	0	0	1	411.78	-0.195148	-0.195365	-0.0056509	2	-7.76363e-06	1.10399e-06
2	0	0	1	1	411.786	-0.198447	-0.198677	-0.0058644	2	-7.80188e-06	1.16512e-06
2	0	0	1	1	411.793	-0.201846	-0.202048	-0.00610981	2	-7.84287e-06	1.23448e-06
2	0	0	0	1	411.8	-0.205144	-0.205363	-0.00633481	2	-7.88419e-06	1.30094e-06
2	0	0	1	1	411.806	-0.208443	-0.208659	-0.00655497	2	-7.92698e-06	1.36775e-06
2	0	0	1	1	411.813	-0.211842	-0.212086	-0.00677168	2	-7.97255e-06	1.43618e-06
2	0	0	0	1	411.82	-0.21514	-0.215407	-0.00698837	2	-8.01822e-06	1.50534e-06
2	0	0	1	1	411.826	-0.218439	-0.218674	-0.0071712	2	-8.0652e-06	1.56815e-06
2	0	0	1	1	411.833	-0.221838	-0.222076	-0.00737693	2	-8.11493e-06	1.63824e-06
2	0	0	0	1	411.84	-0.225137	-0.22539	-0.00753849	2	-8.16441e-06	1.6991e-06
2	0	0	1	1	411.846	-0.228435	-0.228705	-0.0076956	2	-8.21493e-06	1.76002e-06
2	0	0	1	1	411.853	-0.231834	-0.232104	-0.00783693	2	-8.26801e-06	1.81898e-06
2	0	0	0	1	411.86	-0.235133	-0.235369	-0.00794939	2	-8.32033e-06	1.87104e-06
2	0	0	1	1	411.866	-0.238432	-0.238674	-0.0080587	2	-8.37341e-06	1.9234e-06
2	0	0	1	1	411.873	-0.24183	-0.242064	-0.00814981	2	-8.42876e-06	1.97278e-06
2	0	0	0	1	411.88	-0.245129	-0.245368	-0.00820974	2	-8.48299e-06	2.01441e-06
2	0	0	1	1	411.886	-0.248428	-0.248662	-0.00825807	2	-8.53759e-06	2.05347e-06
2	0	0	1	1	411.893	-0.251826	-0.25207	-0.00828373	2	-8.59408e-06	2.08808e-06
2	0	0	0	1	411.9	-0.255125	-0.255371	-0.00830514	2	-8.64904e-06	2.12089e-06
2	0	0	1	1	411.906	-0.258424	-0.258654	-0.00830702	2	-8.70409e-06	2.14865e-06
2	0	0	1	1	411.913	-0.261823	-0.262063	-0.00827917	2	-8.76072e-06	2.16966e-06
2	0	0	0	1	411.92	-0.265121	-0.265354	-0.0082541	2	-8.8155e-06	2.19026e-06
2	0	0	1	1	411.926	-0.26842	-0.268671	-0.00820213	2	-8.87004e-06	2.20368e-06
2	0	0	1	1	411.933	-0.271774	-0.272013	-0.00816084	2	-8.92509e-06	2.21985e-06
2	0	0	0	1	411.94	-0.275151	-0.275377	-0.00810657	2	-8.97981e-06	2.23237e-06
2	0	0	1	1	411.946	-0.27845	-0.278656	-0.00801986	2	-9.03324e-06	2.23478e-06
2	0	0	0	1	411.953	-0.281748	-0.281968	-0.00793615	2	-9.08612e-06	2.23774e-06
2	0	0	0	1	411.96	-0.285147	-0.285368	-0.00786839	2	-9.1401e-06	2.24539e-06
2	0	0	1	1	411.966	-0.288446	-0.288675	-0.00777822	2	-9.19194e-06	2.24538e-06
2	0	0	0	1	411.973	-0.291745	-0.291979	-0.00768931	2	-9.24318e-06	2.24512e-06
2	0	0	0	1	411.98	-0.295143	-0.295388	-0.00760335	2	-9.29541e-06	2.24594e-06
2	0	0	1	1	411.986	-0.298442	-0.298693	-0.00751991	2	-9.34553e-06	2.24614e-06
2	0	0	0	1	411.993	-0.301741	-0.301988	-0.00742997	2	-9.39509e-06	2.24376e-06
2	0	0	0	1	412	-0.305139	-0.305375	-0.00734083	2	-9.44554e-06	2.24171e-06
2	0	0	1	1	412.006	-0.308438	-0.308695	-0.00726278	2	-9.49395e-06	2.24198e-06
2	0	0	0	1	412.013	-0.311737	-0.311992	-0.00717804	2	-9.54183e-06	2.23949e-06
2	0	0	0	1	412.02	-0.315136	-0.315397	-0.00710265	2	-9.59061e-06	2.24015e-06
2	0	0	1	1	412.026	-0.318434	-0.318692	-0.00703264	2	-9.63747e-06	2.24125e-06
2	0	0	0	1	412.033	-0.321733	-0.321977	-0.00695694	2	-9.68386e-06	2.23997e-06
2	0	0	0	1	412.04	-0.325132	-0.325348	-0.00688463	2	-9.73116e-06	2.2399e-06
2	0	0	1	1	412.046	-0.328431	-0.328672	-0.00683874	2	-9.77666e-06	2.2477e-06
2	0	0	0	1	412.053	-0.331729	-0.331975	-0.00678566	2	-9.82184e-06	2.25267e-06
2	0	0	0	1	412.06	-0.335128	-0.335359	-0.00670978	2	-9.86795e-06	2.25018e-06
2	0	0	1	1	412.066	-0.338427	-0.338665	-0.00667255	2	-9.91233e-06	2.25976e-06
2	0	0	0	1	412.073	-0.341726	-0.342015	-0.00662772	2	-9.95646e-06	2.26678e-06
2	0	0	0	1	412.08	-0.345124	-0.345392	-0.00657199	2	-1.00016e-05	2.26991e-06
2	0	0	1	1	412.086	-0.348423	-0.348682	-0.00653042	2	-1.0045e-05	2.27704e-06
2	0	0	0	1	412.093	-0.351722	-0.352002	-0.00649765	2	-1.00883e-05	2.28718e-06
2	0	0	0	1	412.1	-0.35512	-0.355398	-0.00645324	2	-1.01325e-05	2.29347e-06
2	0	0	1	1	412.106	-0.358419	-0.358699	-0.00642841	2	-1.01753e-05	2.30587e-06
2	0	0	0	1	412.113	-0.36174	-0.362007	-0.00639123	2	-1.02178e-05	2.31367e-06
2	0	0	1	1	412.119	-0.36505	-0.365307	-0.00637789	2	-1.02602e-05	2.32989e-06
2	0	0	1	1	412.126	-0.368449	-0.368704	-0.0063367	2	-1.03036e-05	2.33637e-06
2	0	0	0	1	412.133	-0.371747	-0.372008	-0.006325	2	-1.03456e-05	2.35296e-06
2	0	0	1	1	412.139	-0.375046	-0.375297	-0.00630674	2	-1.03875e-05	2.3669e-06
2	0	0	1	1	412.146	-0.378445	-0.37869	-0.00627537	2	-1.04306e-05	2.37642e-06
2	0	0	0	1	412.153	-0.381744	-0.382025	-0.00627061	2	-1.04722e-05	2.39553e-06
2	0	0	1	1	412.159	-0.385042	-0.385327	-0.00625591	2	-1.05138e-05	2.41057e-06
2	0	0	1	1	412.166	-0.388441	-0.388721	-0.00623668	2	-1.05565e-05	2.42433e-06
2	0	0	0	1	412.173	-0.39174	-0.392022	-0.00623397	2	-1.05978e-05	2.44386e-06
2	0	0	1	1	412.179	-0.395039	-0.39532	-0.00620866	2	-1.06391e-05	2.45441e-06
2	0	0	1	1	412.186	-0.398437	-0.398722	-0.00620254	2	-1.06816e-05	2.47309e-06
2	0	0	0	1	412.193	-0.401736	-0.402022	-0.00620601	2	-1.07227e-05	2.49496e-06
2	0	0	1	1	412.199	-0.405035	-0.405305	-0.00618753	2	-1.07639e-05	2.50784e-06
2	0	0	1	1	412.206	-0.408433	-0.408709	-0.00619008	2	-1.08062e-05	2.52994e-06
2	0	0	0	1	412.213	-0.411732	-0.411996	-0.00619498	2	-1.08473e-05	2.55231e-06
2	0	0	1	1	412.219	-0.415031	-0.415307	-0.00619629	2	-1.08884e-05	2.57336e-06
2	0	0	1	1	412.226	-0.41843	-0.418701	-0.00618527	2	-1.09307e-05	2.58978e-06
2	0	0	0	1	412.233	-0.421728	-0.422008	-0.0061857	2	-1.09718e-05	2.61041e-06
2	0	0	1	1	412.239	-0.425027	-0.425298	-0.00618608	2	-1.10128e-05	2.63093e-06
2	0	0	1	1	412.246	-0.428426	-0.428693	-0.00618935	2	-1.10551e-05	2.65333e-06
2	0	0	0	1	412.253	-0.431725	-0.43197	-0.00619657	2	-1.10962e-05	2.67673e-06
2	0	0	1	1	412.259	-0.435023	-0.435285	-0.00619753	2	-1.11374e-05	2.69769e-06
2	0	0	1	1	412.266	-0.438422	-0.438677	-0.00620873	2	-1.11798e-05	2.72363e-06
2	0	0	0	1	412.273	-0.441721	-0.441976	-0.00621044	2	-1.1221e-05	2.74487e-06
2	0	0	1	1	412.279	-0.445019	-0.445271	-0.00621786	2	-1.12623e-05	2.76863e-06
2	0	0	1	1	412.286	-0.448385	-0.448628	-0.00623128	2	-1.13042e-05	2.79553e-06
2	0	0	0	1	412.293	-0.45175	-0.451994	-0.00623077	2	-1.13462e-05	2.81627e-06
2	0	0	1	1	412.299	-0.455049	-0.455288	-0.00625175	2	-1.13876e-05	2.84635e-06
2	0	0	0	1	412.306	-0.458348	-0.458618	-0.00625555	2	-1.14291e-05	2.86891e-06
2	0	0	0	1	412.313	-0.461746	-0.461999	-0.0062738	2	-1.1472e-05	2.89849e-06
2	0	0	1	1	412.319	-0.465045	-0.46529	-0.00628616	2	-1.15136e-05	2.92489e-06
2	0	0	0	1	412.326	-0.468344	-0.46861	-0.00630086	2	-1.15554e-05	2.95265e-06
2	0	0	0	1	412.333	-0.471743	-0.472007	-0.00631049	2	-1.15985e-05	2.97859e-06
2	0	0	1	1	412.339	-0.475041	-0.475291	-0.00632837	2	-1.16405e-05	3.00782e-06
2	0	0	0	1	412.346	-0.47834	-0.478589	-0.00634787	2	-1.16825e-05	3.03802e-06
2	0	0	0	1	412.353	-0.481739	-0.482006	-0.00636379	2	-1.1726e-05	3.06739e-06
2	0	0	1	1	412.359	-0.485038	-0.485294	-0.00637846	2	-1.17683e-05	3.09543e-06
2	0	0	0	1	412.366	-0.488336	-0.488585	-0.00638969	2	-1.18107e-05	3.12191e-06
2	0	0	0	1	412.373	-0.491735	-0.491976	-0.00641724	2	-1.18545e-05	3.15713e-06
2	0	0	1	1	412.379	-0.495034	-0.495279	-0.00643849	2	-1.18971e-05	3.18885e-06
2	0	0	0	1	412.386	-0.498333	-0.498583	-0.0064669	2	-1.19399e-05	3.22428e-06
2	0	0	0	1	412.393	-0.501731	-0.501998	-0.00648567	2	-1.19842e-05	3.25579e-06
2	0	0	1	1	412.399	-0.50503	-0.50529	-0.00651956	2	-1.20274e-05	3.29427e-06
2	0	0	0	1	412.406	-0.508329	-0.508586	-0.00653819	2	-1.20707e-05	3.32523e-06
2	0	0	0	1	412.413	-0.511727	-0.511996	-0.00656644	2	-1.21155e-05	3.36199e-06
2	0	0	1	1	412.419	-0.515026	-0.515279	-0.00659002	2	-1.21591e-05	3.3957e-06
2	0	0	0	1	412.426	-0.518325	-0.518573	-0.0066197	2	-1.2203e-05	3.4328e-06
2	0	0	0	1	412.433	-0.521724	-0.52197	-0.00665402	2	-1.22484e-05	3.4732e-06
2	0	0	1	1	412.439	-0.525022	-0.525288	-0.00668702	2	-1.22926e-05	3.51262e-06
2	0	0	0	1	412.446	-0.528321	-0.528578	-0.00671427	2	-1.23371e-05	3.54902e-06
2	0	0	0	1	412.453	-0.53172	-0.531982	-0.00676256	2	-1.23831e-05	3.59756e-06
2	0	0	1	1	412.459	-0.53503	-0.535284	-0.00679264	2	-1.24281e-05	3.63599e-06
2	0	0	0	1	412.466	-0.538351	-0.53859	-0.00683049	2	-1.24733e-05	3.67883e-06
2	0	0	1	1	412.473	-0.541649	-0.54189	-0.00687858	2	-1.25188e-05	3.72744e-06
2	0	0	1	1	412.479	-0.545048	-0.545291	-0.00692103	2	-1.2566e-05	3.77397e-06
2	0	0	0	1	412.486	-0.548347	-0.548599	-0.00696511	2	-1.2612e-05	3.82105e-06
2	0	0	1	1	412.493	-0.551646	-0.551905	-0.00700695	2	-1.26584e-05	3.86717e-06
2	0	0	1	1	412.499	-0.555044	-0.555319	-0.00705839	2	-1.27064e-05	3.91966e-06
2	0	0	0	1	412.506	-0.558343	-0.558621	-0.00710948	2	-1.27534e-05	3.9715e-06
2	0	0	1	1	412.513	-0.561642	-0.561908	-0.00716453	2	-1.28008e-05	4.0258e-06
2	0	0	1	1	412.519	-0.56504	-0.565315	-0.0072167	2	-1.28499e-05	4.07971e-06
2	0	0	0	1	412.526	-0.568339	-0.568617	-0.00726775	2	-1.28979e-05	4.13256e-06
2	0	0	1	1	412.533	-0.571638	-0.571898	-0.00732829	2	-1.29463e-05	4.19103e-06
2	0	0	1	1	412.539	-0.575037	-0.57531	-0.00739743	2	-1.29967e-05	4.25582e-06
2	0	0	0	1	412.546	-0.578335	-0.578604	-0.00747017	2	-1.3046e-05	4.32227e-06
2	0	0	1	1	412.553	-0.581634	-0.581897	-0.00752395	2	-1.30957e-05	4.37816e-06
2	0	0	1	1	412.559	-0.585033	-0.585305	-0.00760209	2	-1.31473e-05	4.44954e-06
2	0	0	0	1	412.566	-0.588331	-0.588604	-0.00768264	2	-1.3198e-05	4.52203e-06
2	0	0	1	1	412.573	-0.59163	-0.59189	-0.00774929	2	-1.32492e-05	4.58672e-06
2	0	0	1	1	412.579	-0.595029	-0.595301	-0.0078349	2	-1.33024e-05	4.66412e-06
2	0	0	0	1	412.586	-0.59818	-0.598435	-0.00790504	2	-1.33522e-05	4.73065e-06
2	0	0	0	1	412.589	-0.599827	-0.60005	-0.00792919	2	-1.33784e-05	4.75791e-06