File: TAP_Report/Data/MB_SHU/100 uM MB 10mM PB Second ITO_02_CV_C01_2.mpt
EC-Lab ASCII FILE
Nb header lines : 53

Cyclic Voltammetry

Run on channel : 1 (SN 0696)
User :
Electrode connection : standard
Ewe ctrl range : min = -10.00 V, max = 10.00 V
Ewe,I filtering : 50 kHz
Channel : Grounded
Acquisition started on : 05/17/2017 12:14:48
Saved on :
	File : 100 uM MB 10mM PB Second ITO_02_CV_C01.mpr
	Directory : \\userfs\st659\w2k\EC-Lab\Data\ITO Characterisation 17-5-17\
	Host : 144.32.136.43
Device : SP-300 (SN 0182)
Address : USB
EC-Lab for windows v10.44 (software)
Internet server v10.44 (firmware)
Command interpretor v10.44 (firmware)
Electrode material :
Initial state :
Electrolyte :
Comments :
Cable : standard
Electrode surface area : 0.001 cm²
Characteristic mass : 0.001 g
Equivalent Weight : 0.000 g/eq.
Density : 0.000 g/cm3
Ei (V)              0.000
vs.                 Eoc
dE/dt               50.000
dE/dt unit          mV/s
E1 (V)              0.100
vs.                 Ref
Step percent        50
N                   10
E range min (V)     -10.000
E range max (V)     10.000
I Range             Auto
I Range min         Unset
I Range max         Unset
I Range init        Unset
Bandwidth           8
E2 (V)              -0.600
vs.                 Ref
nc cycles           2
Reverse Scan        1
Ef (V)              0.000
vs.                 Eoc

mode	ox/red	error	control changes	counter inc.	time/s	control/V	Ewe/V	<I>/mA	cycle number	(Q-Qo)/C	P/W
2	1	0	1	1	263.052	-0.60016	-0.600333	-0.00498894	2	-4.06146e-05	2.99502e-06
2	1	0	1	1	263.088	-0.598329	-0.59855	-0.00466592	2	-4.07853e-05	2.79279e-06
2	1	0	0	1	263.155	-0.594992	-0.595216	-0.00449	2	-4.10871e-05	2.67252e-06
2	1	0	1	1	263.222	-0.591664	-0.591878	-0.00435029	2	-4.13782e-05	2.57484e-06
2	1	0	0	1	263.288	-0.588334	-0.588535	-0.00422713	2	-4.16605e-05	2.48782e-06
2	1	0	1	1	263.355	-0.585003	-0.5852	-0.00411601	2	-4.19351e-05	2.40869e-06
2	1	0	1	1	263.422	-0.581664	-0.581859	-0.00401353	2	-4.22034e-05	2.33531e-06
2	1	0	0	1	263.488	-0.578332	-0.578573	-0.00391988	2	-4.24644e-05	2.26794e-06
2	1	0	1	1	263.555	-0.575003	-0.575223	-0.00383196	2	-4.27193e-05	2.20423e-06
2	1	0	0	1	263.622	-0.571675	-0.571886	-0.00374847	2	-4.29685e-05	2.1437e-06
2	1	0	1	1	263.688	-0.568342	-0.568567	-0.00366948	2	-4.32123e-05	2.08635e-06
2	1	0	1	1	263.755	-0.565004	-0.565226	-0.00359457	2	-4.34518e-05	2.03175e-06
2	1	0	0	1	263.822	-0.561673	-0.561887	-0.00352399	2	-4.36857e-05	1.98008e-06
2	1	0	1	1	263.888	-0.558343	-0.558566	-0.00345627	2	-4.3915e-05	1.93055e-06
2	1	0	0	1	263.955	-0.555014	-0.555246	-0.00339292	2	-4.41399e-05	1.88391e-06
2	1	0	1	1	264.021	-0.551682	-0.551886	-0.00332974	2	-4.43606e-05	1.83763e-06
2	1	0	1	1	264.088	-0.548343	-0.548564	-0.00327069	2	-4.45779e-05	1.79418e-06
2	1	0	0	1	264.155	-0.545014	-0.545222	-0.00321529	2	-4.47908e-05	1.75305e-06
2	1	0	1	1	264.221	-0.541683	-0.541882	-0.00316032	2	-4.49999e-05	1.71252e-06
2	1	0	0	1	264.288	-0.538354	-0.538549	-0.00310773	2	-4.52056e-05	1.67367e-06
2	1	0	0	1	264.355	-0.535017	-0.535214	-0.00305773	2	-4.54081e-05	1.63654e-06
2	1	0	1	1	264.421	-0.531683	-0.531893	-0.00300947	2	-4.56073e-05	1.60072e-06
2	1	0	0	1	264.488	-0.528354	-0.528577	-0.00296227	2	-4.58031e-05	1.56579e-06
2	1	0	1	1	264.555	-0.525022	-0.525261	-0.00291877	2	-4.59959e-05	1.53312e-06
2	1	0	0	1	264.621	-0.521694	-0.521916	-0.00287493	2	-4.61857e-05	1.50047e-06
2	1	0	0	1	264.688	-0.518358	-0.518572	-0.00283231	2	-4.63729e-05	1.46875e-06
2	1	0	1	1	264.755	-0.515023	-0.515236	-0.00279247	2	-4.65574e-05	1.43878e-06
2	1	0	0	1	264.821	-0.511694	-0.51191	-0.00275069	2	-4.67389e-05	1.40811e-06
2	1	0	1	1	264.888	-0.508362	-0.508558	-0.00271354	2	-4.69178e-05	1.37999e-06
2	1	0	0	1	264.954	-0.505033	-0.505244	-0.00267738	2	-4.70943e-05	1.35273e-06
2	1	0	0	1	265.021	-0.501699	-0.501913	-0.00264167	2	-4.72686e-05	1.32589e-06
2	1	0	1	1	265.088	-0.498362	-0.49856	-0.00260606	2	-4.74405e-05	1.29928e-06
2	1	0	0	1	265.154	-0.495034	-0.495235	-0.00257348	2	-4.76099e-05	1.27448e-06
2	1	0	1	1	265.221	-0.491703	-0.491902	-0.00253839	2	-4.7777e-05	1.24864e-06
2	1	0	0	1	265.288	-0.488373	-0.488584	-0.00250615	2	-4.7942e-05	1.22446e-06
2	1	0	0	1	265.354	-0.485034	-0.48524	-0.00247447	2	-4.81053e-05	1.20071e-06
2	1	0	1	1	265.421	-0.481702	-0.481941	-0.00244259	2	-4.8266e-05	1.17719e-06
2	1	0	0	1	265.488	-0.478373	-0.478591	-0.0024136	2	-4.84247e-05	1.15513e-06
2	1	0	1	1	265.554	-0.475044	-0.475241	-0.00238299	2	-4.85813e-05	1.1325e-06
2	1	0	0	1	265.621	-0.471713	-0.47193	-0.00235535	2	-4.87361e-05	1.11156e-06
2	1	0	0	1	265.688	-0.468374	-0.468567	-0.00232679	2	-4.88894e-05	1.09025e-06
2	1	0	1	1	265.754	-0.465043	-0.46523	-0.00229871	2	-4.90404e-05	1.06943e-06
2	1	0	0	1	265.821	-0.461713	-0.461897	-0.0022726	2	-4.91895e-05	1.04971e-06
2	1	0	1	1	265.887	-0.458384	-0.458577	-0.00224564	2	-4.9337e-05	1.0298e-06
2	1	0	0	1	265.954	-0.455052	-0.455229	-0.00221999	2	-4.94826e-05	1.0106e-06
2	1	0	0	1	266.021	-0.451714	-0.451893	-0.0021943	2	-4.9627e-05	9.91588e-07
2	1	0	1	1	266.087	-0.448383	-0.448548	-0.00216963	2	-4.97693e-05	9.73182e-07
2	1	0	0	1	266.154	-0.445053	-0.445246	-0.00214523	2	-4.99099e-05	9.55154e-07
2	1	0	1	1	266.221	-0.441724	-0.441919	-0.00212036	2	-5.00489e-05	9.37029e-07
2	1	0	1	1	266.287	-0.438388	-0.438585	-0.00209651	2	-5.01866e-05	9.19495e-07
2	1	0	0	1	266.354	-0.435053	-0.435248	-0.00207338	2	-5.03226e-05	9.02436e-07
2	1	0	1	1	266.421	-0.431723	-0.431887	-0.00205174	2	-5.0457e-05	8.86122e-07
2	1	0	0	1	266.487	-0.428392	-0.428572	-0.00203034	2	-5.05898e-05	8.70145e-07
2	1	0	1	1	266.554	-0.425064	-0.425278	-0.00200748	2	-5.07213e-05	8.53737e-07
2	1	0	1	1	266.62	-0.421728	-0.421931	-0.00198632	2	-5.08515e-05	8.3809e-07
2	1	0	0	1	266.687	-0.418393	-0.418595	-0.00196589	2	-5.09803e-05	8.22911e-07
2	1	0	1	1	266.754	-0.415064	-0.415253	-0.00194475	2	-5.11075e-05	8.07565e-07
2	1	0	0	1	266.82	-0.411732	-0.411915	-0.00192379	2	-5.12332e-05	7.92438e-07
2	1	0	1	1	266.887	-0.408403	-0.408606	-0.00190328	2	-5.13576e-05	7.7769e-07
2	1	0	1	1	266.954	-0.405068	-0.405269	-0.00188314	2	-5.14809e-05	7.63177e-07
2	1	0	0	1	267.02	-0.401733	-0.401949	-0.00186333	2	-5.16028e-05	7.48966e-07
2	1	0	1	1	267.087	-0.398404	-0.398614	-0.00184361	2	-5.17233e-05	7.3489e-07
2	1	0	0	1	267.154	-0.395073	-0.395299	-0.00182397	2	-5.18424e-05	7.21013e-07
2	1	0	1	1	267.22	-0.391743	-0.391949	-0.00180477	2	-5.19602e-05	7.07379e-07
2	1	0	1	1	267.287	-0.388409	-0.388627	-0.00178478	2	-5.20769e-05	6.93612e-07
2	1	0	0	1	267.354	-0.385072	-0.385314	-0.00176648	2	-5.21924e-05	6.80651e-07
2	1	0	1	1	267.42	-0.381744	-0.381947	-0.00174697	2	-5.23064e-05	6.6725e-07
2	1	0	0	1	267.487	-0.378414	-0.378593	-0.00172856	2	-5.24191e-05	6.54419e-07
2	1	0	1	1	267.553	-0.375083	-0.375265	-0.00171151	2	-5.25307e-05	6.42269e-07
2	1	0	1	1	267.62	-0.371744	-0.371939	-0.0016943	2	-5.26414e-05	6.30174e-07
2	1	0	0	1	267.687	-0.368412	-0.368609	-0.0016764	2	-5.27507e-05	6.17937e-07
2	1	0	1	1	267.753	-0.365083	-0.365268	-0.0016596	2	-5.28588e-05	6.06198e-07
2	1	0	0	1	267.82	-0.361753	-0.361941	-0.00164188	2	-5.29657e-05	5.94264e-07
2	1	0	1	1	267.887	-0.358422	-0.358617	-0.00162443	2	-5.30715e-05	5.82549e-07
2	1	0	1	1	267.953	-0.355084	-0.355294	-0.00160769	2	-5.31765e-05	5.71203e-07
2	1	0	0	1	268.02	-0.351753	-0.351955	-0.00159059	2	-5.32801e-05	5.59816e-07
2	1	0	1	1	268.087	-0.348423	-0.348614	-0.00157345	2	-5.33825e-05	5.48527e-07
2	1	0	0	1	268.153	-0.345094	-0.345306	-0.00155719	2	-5.34838e-05	5.37706e-07
2	1	0	1	1	268.22	-0.341762	-0.341981	-0.00153998	2	-5.3584e-05	5.26642e-07
2	1	0	1	1	268.287	-0.338423	-0.338606	-0.00152298	2	-5.36833e-05	5.1569e-07
2	1	0	0	1	268.353	-0.335094	-0.335281	-0.00150785	2	-5.37812e-05	5.05553e-07
2	1	0	1	1	268.42	-0.331763	-0.331948	-0.0014916	2	-5.38781e-05	4.95133e-07
2	1	0	0	1	268.486	-0.328434	-0.328609	-0.00147432	2	-5.39739e-05	4.84476e-07
2	1	0	0	1	268.553	-0.325097	-0.325269	-0.0014582	2	-5.40687e-05	4.74307e-07
2	1	0	1	1	268.62	-0.321763	-0.321938	-0.00144211	2	-5.41624e-05	4.64268e-07
2	1	0	0	1	268.686	-0.318434	-0.318613	-0.00142606	2	-5.4255e-05	4.5436e-07
2	1	0	1	1	268.753	-0.315102	-0.315281	-0.00140791	2	-5.43464e-05	4.43888e-07
2	1	0	0	1	268.82	-0.311774	-0.311973	-0.00139267	2	-5.44366e-05	4.34476e-07
2	1	0	0	1	268.886	-0.308438	-0.30862	-0.0013742	2	-5.45259e-05	4.24106e-07
2	1	0	1	1	268.953	-0.305103	-0.305292	-0.00135673	2	-5.4614e-05	4.14199e-07
2	1	0	0	1	269.02	-0.301774	-0.301954	-0.0013388	2	-5.47008e-05	4.04256e-07
2	1	0	1	1	269.086	-0.298442	-0.29863	-0.00132197	2	-5.47864e-05	3.9478e-07
2	1	0	0	1	269.153	-0.295113	-0.29526	-0.00130301	2	-5.48708e-05	3.84726e-07
2	1	0	0	1	269.219	-0.291779	-0.291927	-0.00128596	2	-5.49541e-05	3.75408e-07
2	1	0	1	1	269.286	-0.288442	-0.288604	-0.00126703	2	-5.50363e-05	3.65669e-07
2	1	0	0	1	269.353	-0.285114	-0.285276	-0.00124822	2	-5.5117e-05	3.56087e-07
2	1	0	1	1	269.419	-0.281783	-0.281928	-0.00122945	2	-5.51965e-05	3.46617e-07
2	1	0	0	1	269.486	-0.278453	-0.278618	-0.0012093	2	-5.52747e-05	3.36932e-07
2	1	0	0	1	269.553	-0.275114	-0.275289	-0.00119044	2	-5.53519e-05	3.27714e-07
2	1	0	1	1	269.619	-0.271782	-0.271948	-0.00116869	2	-5.54274e-05	3.17822e-07
2	1	0	0	1	269.686	-0.268453	-0.268631	-0.00114719	2	-5.55014e-05	3.0817e-07
2	1	0	1	1	269.753	-0.265124	-0.26529	-0.00112376	2	-5.5574e-05	2.98122e-07
2	1	0	0	1	269.819	-0.261793	-0.261959	-0.00109927	2	-5.5645e-05	2.87964e-07
2	1	0	0	1	269.886	-0.258454	-0.258623	-0.00107555	2	-5.57146e-05	2.78163e-07
2	1	0	1	1	269.953	-0.255122	-0.255296	-0.00104998	2	-5.57823e-05	2.68054e-07
2	1	0	0	1	270.019	-0.251793	-0.251978	-0.00102083	2	-5.58481e-05	2.57225e-07
2	1	0	1	1	270.086	-0.248464	-0.248661	-0.000991428	2	-5.59121e-05	2.46529e-07
2	1	0	0	1	270.152	-0.245132	-0.245314	-0.000959258	2	-5.5974e-05	2.35319e-07
2	1	0	0	1	270.219	-0.241794	-0.241965	-0.000924564	2	-5.60338e-05	2.23712e-07
2	1	0	1	1	270.286	-0.238463	-0.238626	-0.000888876	2	-5.60911e-05	2.12109e-07
2	1	0	0	1	270.352	-0.235133	-0.235308	-0.000849447	2	-5.61458e-05	1.99881e-07
2	1	0	1	1	270.419	-0.231804	-0.231992	-0.000807911	2	-5.61979e-05	1.87429e-07
2	1	0	1	1	270.486	-0.228468	-0.228649	-0.000761659	2	-5.62471e-05	1.74153e-07
2	1	0	0	1	270.552	-0.225133	-0.225312	-0.000710865	2	-5.62931e-05	1.60167e-07
2	1	0	1	1	270.619	-0.221803	-0.221992	-0.000657103	2	-5.63355e-05	1.45872e-07
2	1	0	0	1	270.686	-0.218472	-0.218648	-0.00059704	2	-5.63741e-05	1.30542e-07
2	1	0	1	1	270.769	-0.214309	-0.214494	-0.000513095	2	-5.64161e-05	1.10056e-07
2	1	0	1	1	270.852	-0.210142	-0.210299	-0.000407252	2	-5.64522e-05	8.5645e-08
2	1	0	0	1	270.919	-0.206814	-0.206967	-0.000327459	2	-5.64744e-05	6.77732e-08
2	1	0	0	1	270.985	-0.203478	-0.203622	-0.000237409	2	-5.6491e-05	4.83417e-08
2	1	0	1	1	271.052	-0.200143	-0.200283	-0.00014093	2	-5.65014e-05	2.82258e-08
2	1	0	0	1	271.119	-0.196814	-0.196958	-3.80226e-05	2	-5.65052e-05	7.48883e-09
2	1	0	1	1	271.185	-0.193482	-0.193611	7.01934e-05	2	-5.65019e-05	1.35902e-08
2	1	0	0	1	271.252	-0.190153	-0.190285	0.000182124	2	-5.64913e-05	3.46554e-08
2	1	0	0	1	271.319	-0.186819	-0.18696	0.000299733	2	-5.64731e-05	5.60381e-08
2	1	0	1	1	271.385	-0.183482	-0.183619	0.000417436	2	-5.6447e-05	7.66491e-08
2	1	0	0	1	271.452	-0.180154	-0.180285	0.000530374	2	-5.64132e-05	9.56186e-08
2	1	0	1	1	271.519	-0.176823	-0.176955	0.000639932	2	-5.6372e-05	1.13239e-07
2	1	0	0	1	271.585	-0.173493	-0.173627	0.000737109	2	-5.6324e-05	1.27982e-07
2	1	0	0	1	271.652	-0.170154	-0.170293	0.000825661	2	-5.62696e-05	1.40605e-07
2	1	0	1	1	271.719	-0.166822	-0.166939	0.000901026	2	-5.621e-05	1.50416e-07
2	1	0	0	1	271.802	-0.162657	-0.162796	0.000959951	2	-5.61282e-05	1.56276e-07
2	1	0	0	1	271.885	-0.158492	-0.158632	0.00100159	2	-5.60424e-05	1.58884e-07
2	1	0	1	1	271.952	-0.155163	-0.155288	0.00102212	2	-5.59719e-05	1.58723e-07
2	1	0	0	1	272.018	-0.151833	-0.151964	0.00102362	2	-5.59007e-05	1.55553e-07
2	1	0	1	1	272.085	-0.148503	-0.148641	0.0010161	2	-5.58297e-05	1.51034e-07
2	1	0	1	1	272.152	-0.145164	-0.145314	0.000999053	2	-5.57594e-05	1.45177e-07
2	1	0	0	1	272.218	-0.141833	-0.141971	0.000972538	2	-5.56907e-05	1.38072e-07
2	1	0	1	1	272.285	-0.138503	-0.138645	0.000942169	2	-5.56239e-05	1.30627e-07
2	1	0	0	1	272.352	-0.135174	-0.135291	0.000907985	2	-5.55594e-05	1.22843e-07
2	1	0	1	1	272.418	-0.131842	-0.13198	0.000868633	2	-5.54973e-05	1.14642e-07
2	1	0	1	1	272.485	-0.128503	-0.128632	0.00083061	2	-5.54376e-05	1.06843e-07
2	1	0	0	1	272.552	-0.125174	-0.125273	0.000792827	2	-5.53806e-05	9.932e-08
2	1	0	1	1	272.618	-0.121843	-0.121937	0.000753499	2	-5.53262e-05	9.18793e-08
2	1	0	0	1	272.685	-0.118514	-0.118613	0.000717561	2	-5.52743e-05	8.5112e-08
2	1	0	0	1	272.751	-0.115177	-0.115281	0.000683227	2	-5.52247e-05	7.87631e-08
2	1	0	1	1	272.818	-0.111843	-0.111936	0.000651309	2	-5.51773e-05	7.2905e-08
2	1	0	0	1	272.885	-0.108513	-0.108622	0.00061998	2	-5.51321e-05	6.73433e-08
2	1	0	1	1	272.951	-0.105182	-0.105281	0.00059165	2	-5.50889e-05	6.22894e-08
2	1	0	0	1	273.018	-0.101854	-0.101975	0.000565484	2	-5.50475e-05	5.76651e-08
2	1	0	0	1	273.085	-0.0985182	-0.0986487	0.000540432	2	-5.50078e-05	5.33129e-08
2	1	0	1	1	273.151	-0.0951828	-0.0953196	0.000517481	2	-5.49696e-05	4.93261e-08
2	1	0	0	1	273.218	-0.0918541	-0.0919565	0.000497837	2	-5.49329e-05	4.57793e-08
2	1	0	1	1	273.285	-0.088522	-0.0886434	0.000478095	2	-5.48976e-05	4.23799e-08
2	1	0	0	1	273.351	-0.0851933	-0.085316	0.000460463	2	-5.48635e-05	3.92849e-08
2	1	0	0	1	273.418	-0.081859	-0.0820194	0.000443613	2	-5.48306e-05	3.63848e-08
2	1	0	1	1	273.501	-0.0776943	-0.0778359	0.00042557	2	-5.47905e-05	3.31246e-08
2	1	0	1	1	273.584	-0.0735289	-0.0736546	0.000413116	2	-5.47517e-05	3.04279e-08
2	1	0	0	1	273.651	-0.0701924	-0.0703105	0.000399625	2	-5.47223e-05	2.80978e-08
2	1	0	1	1	273.718	-0.0668636	-0.0669946	0.000387529	2	-5.46937e-05	2.59624e-08
2	1	0	0	1	273.784	-0.0635327	-0.0636568	0.000376341	2	-5.46658e-05	2.39566e-08
2	1	0	1	1	273.851	-0.0602028	-0.0603354	0.000365735	2	-5.46387e-05	2.20668e-08
2	1	0	1	1	273.918	-0.0568641	-0.0570008	0.00035544	2	-5.46122e-05	2.02604e-08
2	1	0	0	1	273.984	-0.053532	-0.0536712	0.000347594	2	-5.45863e-05	1.86558e-08
2	1	0	1	1	274.051	-0.0502033	-0.050328	0.000339909	2	-5.4561e-05	1.71069e-08
2	1	0	0	1	274.118	-0.0468735	-0.0470126	0.000330892	2	-5.45363e-05	1.55561e-08
2	1	0	1	1	274.184	-0.0435425	-0.0436794	0.000324327	2	-5.4512e-05	1.41664e-08
2	1	0	1	1	274.251	-0.0402038	-0.0403198	0.000318234	2	-5.44881e-05	1.28311e-08
2	1	0	0	1	274.318	-0.0368728	-0.036993	0.000311247	2	-5.44647e-05	1.1514e-08
2	1	0	1	1	274.384	-0.033543	-0.0336687	0.00030433	2	-5.44418e-05	1.02464e-08
2	1	0	0	1	274.451	-0.0302143	-0.030337	0.000300025	2	-5.44192e-05	9.10186e-09
2	1	0	1	1	274.517	-0.0268822	-0.0270041	0.000294709	2	-5.43969e-05	7.95836e-09
2	1	0	1	1	274.584	-0.0235435	-0.0236653	0.000289104	2	-5.4375e-05	6.84175e-09
2	1	0	0	1	274.651	-0.0202136	-0.0203445	0.000284188	2	-5.43534e-05	5.78167e-09
2	1	0	1	1	274.717	-0.0168827	-0.0170212	0.000279713	2	-5.43322e-05	4.76105e-09
2	1	0	0	1	274.784	-0.0135539	-0.013694	0.000274909	2	-5.43112e-05	3.7646e-09
2	1	0	0	1	274.851	-0.0102174	-0.0103469	0.000271873	2	-5.42905e-05	2.81305e-09
2	1	0	1	1	274.917	-0.00688316	-0.00702866	0.00026812	2	-5.427e-05	1.88452e-09
2	1	0	0	1	274.984	-0.00355332	-0.00370223	0.000265086	2	-5.42498e-05	9.8141e-10
2	1	0	1	1	275.051	-0.000209911	-0.000364826	0.000261776	2	-5.42298e-05	9.55026e-11
2	1	0	0	1	275.117	0.00310637	0.00299518	0.000258715	2	-5.421e-05	7.74898e-10
2	1	0	0	1	275.184	0.00644176	0.00632707	0.00025556	2	-5.41903e-05	1.61694e-09
2	1	0	1	1	275.251	0.00977715	0.0096576	0.000253265	2	-5.41709e-05	2.44593e-09
2	1	0	0	1	275.317	0.0131059	0.0130167	0.000250538	2	-5.41516e-05	3.26119e-09
2	1	0	1	1	275.384	0.0164379	0.0163654	0.000248167	2	-5.41324e-05	4.06134e-09
2	1	0	0	1	275.45	0.0197667	0.0196819	0.000245916	2	-5.41135e-05	4.84009e-09
2	1	0	0	1	275.517	0.023101	0.0229901	0.000243995	2	-5.40946e-05	5.60947e-09
2	1	0	1	1	275.584	0.0264375	0.0263365	0.000242398	2	-5.40759e-05	6.38391e-09
2	1	0	0	1	275.65	0.0297662	0.0296663	0.000240713	2	-5.40573e-05	7.14105e-09
2	1	0	1	1	275.717	0.0330971	0.0330003	0.000239245	2	-5.40388e-05	7.89516e-09
2	1	0	0	1	275.784	0.036427	0.0363515	0.000237714	2	-5.40204e-05	8.64125e-09
2	1	0	0	1	275.85	0.0397613	0.0396619	0.000236596	2	-5.4002e-05	9.38385e-09
2	1	0	1	1	275.917	0.0430978	0.0429876	0.000235974	2	-5.39838e-05	1.01439e-08
2	1	0	0	1	275.984	0.0464265	0.04635	0.000235192	2	-5.39656e-05	1.09011e-08
2	1	0	1	1	276.05	0.0497563	0.0496662	0.000234325	2	-5.39474e-05	1.1638e-08
2	1	0	0	1	276.117	0.0530873	0.053014	0.000233533	2	-5.39293e-05	1.23805e-08
2	1	0	0	1	276.184	0.056426	0.0563435	0.000232931	2	-5.39112e-05	1.31242e-08
2	1	0	1	1	276.25	0.0597581	0.0596828	0.000232641	2	-5.38932e-05	1.38847e-08
2	1	0	0	1	276.317	0.0630868	0.0630177	0.000231597	2	-5.38752e-05	1.45947e-08
2	1	0	1	1	276.383	0.0664155	0.0663249	0.000231085	2	-5.38572e-05	1.53267e-08
2	1	0	0	1	276.45	0.0697476	0.0696595	0.000231223	2	-5.38393e-05	1.61069e-08
2	1	0	0	1	276.517	0.0730863	0.0729922	0.000231174	2	-5.38213e-05	1.68739e-08
2	1	0	1	1	276.583	0.0764173	0.0763277	0.000231168	2	-5.38034e-05	1.76445e-08
2	1	0	0	1	276.65	0.0797471	0.0796773	0.000231682	2	-5.37854e-05	1.84598e-08
2	1	0	1	1	276.717	0.0830758	0.0829757	0.000231976	2	-5.37675e-05	1.92484e-08
2	1	0	0	1	276.783	0.0864079	0.086306	0.000231359	2	-5.37496e-05	1.99677e-08
2	1	0	0	1	276.85	0.0897466	0.089638	0.000232229	2	-5.37315e-05	2.08165e-08
2	1	0	1	1	276.917	0.0930765	0.0929661	0.000232199	2	-5.37136e-05	2.15867e-08
2	1	0	0	1	276.983	0.0964074	0.0962977	0.000233093	2	-5.36955e-05	2.24463e-08
2	1	0	1	1	277.033	0.0989065	0.0988059	0.000234601	2	-5.36819e-05	2.318e-08
2	0	0	0	1	277.054	0.0999061	0.0997726	0.000230413	2	-5.36764e-05	2.29889e-08
2	0	0	0	1	277.09	0.0980701	0.0979573	0.000139923	2	-5.36724e-05	1.37064e-08
2	0	0	1	1	277.157	0.0947403	0.0946275	7.7143e-05	2	-5.36678e-05	7.29985e-09
2	0	0	0	1	277.224	0.0914093	0.0912943	3.07504e-05	2	-5.36669e-05	2.80734e-09
2	0	0	1	1	277.29	0.0880806	0.0879435	-1.01875e-05	2	-5.36688e-05	8.95927e-10
2	0	0	1	1	277.357	0.0847452	0.0846251	-4.62232e-05	2	-5.36732e-05	3.91164e-09
2	0	0	0	1	277.424	0.0814098	0.0812949	-7.97315e-05	2	-5.368e-05	6.48177e-09
2	0	0	1	1	277.49	0.0780811	0.0779716	-0.000109836	2	-5.36889e-05	8.56411e-09
2	0	0	0	1	277.557	0.074749	0.0746355	-0.000140451	2	-5.36998e-05	1.04827e-08
2	0	0	1	1	277.623	0.0714203	0.0713099	-0.000169125	2	-5.37127e-05	1.20603e-08
2	0	0	1	1	277.69	0.0680849	0.0679752	-0.000196453	2	-5.37274e-05	1.33539e-08
2	0	0	0	1	277.757	0.0647495	0.0646488	-0.000222463	2	-5.3744e-05	1.4382e-08
2	0	0	1	1	277.823	0.0614208	0.0613402	-0.000247639	2	-5.37622e-05	1.51902e-08
2	0	0	0	1	277.89	0.0580898	0.0579904	-0.000272405	2	-5.37821e-05	1.57969e-08
2	0	0	1	1	277.957	0.05476	0.0546598	-0.000296573	2	-5.38036e-05	1.62106e-08
2	0	0	1	1	278.023	0.0514257	0.0513243	-0.000319275	2	-5.38267e-05	1.63865e-08
2	0	0	0	1	278.09	0.0480892	0.047984	-0.000341032	2	-5.38512e-05	1.63641e-08
2	0	0	1	1	278.157	0.0447605	0.0446412	-0.000362218	2	-5.38772e-05	1.61698e-08
2	0	0	0	1	278.223	0.0414306	0.0413016	-0.000383588	2	-5.39047e-05	1.58428e-08
2	0	0	1	1	278.29	0.0380997	0.0379805	-0.000403249	2	-5.39334e-05	1.53156e-08
2	0	0	1	1	278.357	0.034761	0.0346272	-0.000424082	2	-5.39636e-05	1.46848e-08
2	0	0	0	1	278.423	0.0314289	0.0312939	-0.000442887	2	-5.3995e-05	1.38597e-08
2	0	0	1	1	278.49	0.0281002	0.0279609	-0.000462125	2	-5.40277e-05	1.29214e-08
2	0	0	0	1	278.556	0.0247703	0.0246431	-0.000480677	2	-5.40616e-05	1.18454e-08
2	0	0	1	1	278.623	0.0214394	0.0213035	-0.000498279	2	-5.40967e-05	1.06151e-08
2	0	0	1	1	278.69	0.0181006	0.0179611	-0.000515725	2	-5.41331e-05	9.26301e-09
2	0	0	0	1	278.756	0.0147697	0.0146423	-0.000532755	2	-5.41706e-05	7.80074e-09
2	0	0	1	1	278.823	0.0114399	0.0112904	-0.000549893	2	-5.42092e-05	6.20853e-09
2	0	0	0	1	278.89	0.00811112	0.00794406	-0.000566967	2	-5.42489e-05	4.50402e-09
2	0	0	1	1	278.956	0.00477906	0.00462871	-0.000582629	2	-5.42898e-05	2.69682e-09
2	0	0	1	1	279.023	0.00144034	0.00125864	-0.000599908	2	-5.43318e-05	7.55067e-10
2	0	0	0	1	279.09	-0.00188951	-0.00208938	-0.00061481	2	-5.43748e-05	1.28457e-09
2	0	0	1	1	279.156	-0.00522046	-0.00540088	-0.000630133	2	-5.44188e-05	3.40327e-09
2	0	0	0	1	279.223	-0.00854919	-0.00873704	-0.000645825	2	-5.44638e-05	5.6426e-09
2	0	0	0	1	279.289	-0.0118857	-0.012058	-0.000661109	2	-5.45099e-05	7.97166e-09
2	0	0	1	1	279.356	-0.01522	-0.0154	-0.000675086	2	-5.4557e-05	1.03963e-08
2	0	0	0	1	279.423	-0.0185498	-0.0187165	-0.000690003	2	-5.4605e-05	1.29145e-08
2	0	0	1	1	279.489	-0.0218808	-0.022045	-0.00070432	2	-5.46539e-05	1.55267e-08
2	0	0	0	1	279.556	-0.0252095	-0.0253958	-0.000718963	2	-5.47038e-05	1.82587e-08
2	0	0	0	1	279.623	-0.0285449	-0.0287079	-0.000732948	2	-5.47547e-05	2.10414e-08
2	0	0	1	1	279.689	-0.0318803	-0.032058	-0.000746642	2	-5.48066e-05	2.39358e-08
2	0	0	0	1	279.756	-0.035209	-0.0353756	-0.000761189	2	-5.48593e-05	2.69275e-08
2	0	0	1	1	279.823	-0.0385411	-0.0387121	-0.000774612	2	-5.49129e-05	2.99868e-08
2	0	0	0	1	279.889	-0.0418698	-0.0420676	-0.000788118	2	-5.49675e-05	3.31542e-08
2	0	0	0	1	279.956	-0.0452041	-0.0454058	-0.000802281	2	-5.50231e-05	3.64282e-08
2	0	0	1	1	280.023	-0.0485406	-0.0487411	-0.000815269	2	-5.50795e-05	3.97371e-08
2	0	0	0	1	280.089	-0.0518693	-0.0520925	-0.00082862	2	-5.51368e-05	4.31648e-08
2	0	0	1	1	280.156	-0.0552003	-0.0554204	-0.000842625	2	-5.51949e-05	4.66986e-08
2	0	0	0	1	280.222	-0.0585301	-0.0587366	-0.000855927	2	-5.52539e-05	5.02742e-08
2	0	0	0	1	280.289	-0.0618689	-0.0620565	-0.000868586	2	-5.5314e-05	5.39014e-08
2	0	0	1	1	280.356	-0.0652009	-0.065391	-0.000882393	2	-5.53748e-05	5.77006e-08
2	0	0	0	1	280.422	-0.0685297	-0.0687315	-0.000896146	2	-5.54364e-05	6.15934e-08
2	0	0	1	1	280.489	-0.0718595	-0.0720644	-0.000908773	2	-5.5499e-05	6.54901e-08
2	0	0	0	1	280.572	-0.0760264	-0.0762053	-0.000923333	2	-5.55796e-05	7.03629e-08
2	0	0	0	1	280.656	-0.0801897	-0.0803534	-0.00093512	2	-5.56613e-05	7.514e-08
2	0	0	1	1	280.722	-0.0835206	-0.0836797	-0.000949018	2	-5.57269e-05	7.94135e-08
2	0	0	1	1	280.789	-0.0868593	-0.0870017	-0.00096369	2	-5.57936e-05	8.38426e-08
2	0	0	0	1	280.856	-0.0901903	-0.0903189	-0.000977856	2	-5.58611e-05	8.83189e-08
2	0	0	1	1	280.922	-0.0935201	-0.0936597	-0.000993427	2	-5.59296e-05	9.30441e-08
2	0	0	0	1	280.989	-0.0968489	-0.0969944	-0.00100784	2	-5.59991e-05	9.77548e-08
2	0	0	1	1	281.055	-0.100181	-0.100325	-0.00102452	2	-5.60697e-05	1.02785e-07
2	0	0	1	1	281.122	-0.10352	-0.103691	-0.00104134	2	-5.61415e-05	1.07978e-07
2	0	0	0	1	281.189	-0.106849	-0.106999	-0.00105832	2	-5.62143e-05	1.13238e-07
2	0	0	1	1	281.255	-0.11018	-0.11032	-0.00107635	2	-5.62883e-05	1.18743e-07
2	0	0	0	1	281.322	-0.113509	-0.113641	-0.00109616	2	-5.63636e-05	1.24569e-07
2	0	0	0	1	281.389	-0.116846	-0.116991	-0.00111743	2	-5.64403e-05	1.3073e-07
2	0	0	1	1	281.455	-0.12018	-0.120324	-0.00113947	2	-5.65185e-05	1.37106e-07
2	0	0	0	1	281.522	-0.12351	-0.123658	-0.00116467	2	-5.65982e-05	1.44021e-07
2	0	0	1	1	281.589	-0.126841	-0.126993	-0.00119147	2	-5.66796e-05	1.51309e-07
2	0	0	0	1	281.655	-0.130169	-0.130333	-0.00122014	2	-5.67629e-05	1.59025e-07
2	0	0	0	1	281.722	-0.133505	-0.133652	-0.00125184	2	-5.68484e-05	1.67311e-07
2	0	0	1	1	281.789	-0.13684	-0.137002	-0.00128697	2	-5.6936e-05	1.76318e-07
2	0	0	0	1	281.855	-0.140169	-0.140335	-0.00132626	2	-5.70261e-05	1.86122e-07
2	0	0	1	1	281.922	-0.143501	-0.143667	-0.00136817	2	-5.71188e-05	1.96561e-07
2	0	0	0	1	281.988	-0.14683	-0.147012	-0.00141567	2	-5.72145e-05	2.08122e-07
2	0	0	0	1	282.055	-0.150164	-0.150311	-0.00146898	2	-5.73138e-05	2.20805e-07
2	0	0	1	1	282.122	-0.153501	-0.153663	-0.0015265	2	-5.74168e-05	2.34566e-07
2	0	0	0	1	282.188	-0.156829	-0.156977	-0.00159275	2	-5.75238e-05	2.50024e-07
2	0	0	1	1	282.255	-0.16016	-0.160331	-0.00166433	2	-5.76354e-05	2.66844e-07
2	0	0	0	1	282.322	-0.16349	-0.163679	-0.00174405	2	-5.77521e-05	2.85465e-07
2	0	0	0	1	282.388	-0.166824	-0.167011	-0.00183193	2	-5.78745e-05	3.05953e-07
2	0	0	1	1	282.455	-0.170161	-0.170348	-0.00192664	2	-5.80031e-05	3.28198e-07
2	0	0	0	1	282.522	-0.17349	-0.173677	-0.00202885	2	-5.81381e-05	3.52365e-07
2	0	0	1	1	282.588	-0.176819	-0.176988	-0.00213842	2	-5.82801e-05	3.78475e-07
2	0	0	0	1	282.655	-0.18015	-0.180344	-0.00225612	2	-5.84297e-05	4.06877e-07
2	0	0	0	1	282.722	-0.183489	-0.183694	-0.00237668	2	-5.85877e-05	4.36582e-07
2	0	0	1	1	282.788	-0.186821	-0.187026	-0.00249883	2	-5.87534e-05	4.67346e-07
2	0	0	0	1	282.855	-0.19015	-0.190354	-0.00262177	2	-5.89273e-05	4.99066e-07
2	0	0	1	1	282.921	-0.193479	-0.193662	-0.00273858	2	-5.91091e-05	5.30359e-07
2	0	0	0	1	282.988	-0.196811	-0.196991	-0.00284889	2	-5.92985e-05	5.61207e-07
2	0	0	0	1	283.055	-0.20015	-0.200322	-0.00295102	2	-5.94955e-05	5.91156e-07
2	0	0	1	1	283.121	-0.20348	-0.203671	-0.00303744	2	-5.96983e-05	6.18638e-07
2	0	0	0	1	283.188	-0.20681	-0.206989	-0.00311166	2	-5.99063e-05	6.44081e-07
2	0	0	1	1	283.255	-0.210139	-0.2103	-0.00316353	2	-6.01186e-05	6.65288e-07
2	0	0	1	1	283.321	-0.213476	-0.213688	-0.00320418	2	-6.03343e-05	6.84695e-07
2	0	0	0	1	283.388	-0.21681	-0.21702	-0.00322435	2	-6.05518e-05	6.99748e-07
2	0	0	1	1	283.455	-0.22014	-0.220338	-0.00323521	2	-6.07701e-05	7.12837e-07
2	0	0	0	1	283.521	-0.223471	-0.223678	-0.00323039	2	-6.09886e-05	7.22566e-07
2	0	0	1	1	283.588	-0.226799	-0.227011	-0.003221	2	-6.12065e-05	7.31201e-07
2	0	0	1	1	283.654	-0.230136	-0.230324	-0.00319867	2	-6.14237e-05	7.36731e-07
2	0	0	0	1	283.721	-0.23347	-0.233653	-0.00317345	2	-6.16392e-05	7.41486e-07
2	0	0	1	1	283.788	-0.236799	-0.236981	-0.00314584	2	-6.18527e-05	7.45502e-07
2	0	0	0	1	283.854	-0.240131	-0.240313	-0.00311626	2	-6.20643e-05	7.48876e-07
2	0	0	1	1	283.921	-0.24346	-0.243658	-0.00308796	2	-6.22739e-05	7.52407e-07
2	0	0	1	1	283.988	-0.246795	-0.246973	-0.00305893	2	-6.2482e-05	7.55473e-07
2	0	0	0	1	284.054	-0.25013	-0.250319	-0.00302557	2	-6.2688e-05	7.57358e-07
2	0	0	1	1	284.121	-0.253459	-0.253652	-0.00300118	2	-6.28918e-05	7.61255e-07
2	0	0	0	1	284.188	-0.25679	-0.256977	-0.00297311	2	-6.30938e-05	7.64021e-07
2	0	0	1	1	284.254	-0.26012	-0.260284	-0.00294702	2	-6.32939e-05	7.67062e-07
2	0	0	1	1	284.321	-0.263454	-0.263629	-0.00292382	2	-6.34928e-05	7.70803e-07
2	0	0	0	1	284.388	-0.266791	-0.266967	-0.00290227	2	-6.36902e-05	7.74809e-07
2	0	0	1	1	284.454	-0.270119	-0.270286	-0.00288061	2	-6.38858e-05	7.78589e-07
2	0	0	0	1	284.521	-0.27345	-0.273639	-0.00286305	2	-6.408e-05	7.83443e-07
2	0	0	1	1	284.587	-0.27678	-0.276938	-0.00284475	2	-6.42731e-05	7.87817e-07
2	0	0	1	1	284.654	-0.280119	-0.280277	-0.00282852	2	-6.44656e-05	7.9277e-07
2	0	0	0	1	284.721	-0.283451	-0.283612	-0.00281444	2	-6.46565e-05	7.98209e-07
2	0	0	1	1	284.787	-0.28678	-0.286944	-0.00280141	2	-6.48466e-05	8.0385e-07
2	0	0	0	1	284.854	-0.29011	-0.290281	-0.00278964	2	-6.50358e-05	8.09778e-07
2	0	0	1	1	284.921	-0.293441	-0.293612	-0.00277852	2	-6.52242e-05	8.15807e-07
2	0	0	1	1	284.987	-0.296779	-0.296979	-0.00276954	2	-6.54126e-05	8.22495e-07
2	0	0	0	1	285.054	-0.30011	-0.300313	-0.00276067	2	-6.55998e-05	8.29064e-07
2	0	0	1	1	285.121	-0.30344	-0.303639	-0.0027526	2	-6.57864e-05	8.35798e-07
2	0	0	0	1	285.187	-0.306769	-0.306983	-0.00274647	2	-6.59726e-05	8.43119e-07
2	0	0	1	1	285.254	-0.310101	-0.310304	-0.00274131	2	-6.61584e-05	8.50641e-07
2	0	0	1	1	285.321	-0.31344	-0.31364	-0.00273662	2	-6.63444e-05	8.58316e-07
2	0	0	0	1	285.387	-0.316771	-0.316971	-0.00273397	2	-6.65296e-05	8.6659e-07
2	0	0	1	1	285.454	-0.3201	-0.320292	-0.00273067	2	-6.67146e-05	8.74612e-07
2	0	0	0	1	285.52	-0.323429	-0.323602	-0.00272794	2	-6.68994e-05	8.82765e-07
2	0	0	0	1	285.587	-0.326766	-0.326949	-0.00272649	2	-6.70844e-05	8.91421e-07
2	0	0	1	1	285.654	-0.3301	-0.330286	-0.00272737	2	-6.72693e-05	9.00814e-07
2	0	0	0	1	285.72	-0.33343	-0.333632	-0.00272779	2	-6.7454e-05	9.10076e-07
2	0	0	1	1	285.787	-0.336761	-0.336966	-0.00272791	2	-6.76387e-05	9.19212e-07
2	0	0	0	1	285.854	-0.340089	-0.340321	-0.00273047	2	-6.78235e-05	9.29238e-07
2	0	0	0	1	285.92	-0.343425	-0.343656	-0.00273168	2	-6.80088e-05	9.38757e-07
2	0	0	1	1	285.987	-0.34676	-0.346983	-0.00273439	2	-6.81941e-05	9.48786e-07
2	0	0	0	1	286.054	-0.350089	-0.35033	-0.00273703	2	-6.83793e-05	9.58863e-07
2	0	0	1	1	286.12	-0.353421	-0.353674	-0.00274152	2	-6.85648e-05	9.69604e-07
2	0	0	0	1	286.187	-0.35675	-0.356983	-0.00274513	2	-6.87505e-05	9.79964e-07
2	0	0	0	1	286.253	-0.360084	-0.360312	-0.00274909	2	-6.89368e-05	9.9053e-07
2	0	0	1	1	286.32	-0.363421	-0.36364	-0.00275359	2	-6.91233e-05	1.00132e-06
2	0	0	0	1	286.387	-0.366749	-0.366965	-0.002758	2	-6.93099e-05	1.01209e-06
2	0	0	1	1	286.453	-0.37008	-0.370278	-0.0027651	2	-6.94969e-05	1.02386e-06
2	0	0	0	1	286.52	-0.37341	-0.373626	-0.00276988	2	-6.96842e-05	1.0349e-06
2	0	0	0	1	286.587	-0.376744	-0.376967	-0.00277644	2	-6.98723e-05	1.04663e-06
2	0	0	1	1	286.653	-0.380081	-0.380293	-0.00278334	2	-7.00607e-05	1.05849e-06
2	0	0	0	1	286.72	-0.38341	-0.383656	-0.00279076	2	-7.02494e-05	1.07069e-06
2	0	0	1	1	286.787	-0.386739	-0.386966	-0.0027975	2	-7.04386e-05	1.08254e-06
2	0	0	0	1	286.853	-0.39007	-0.390315	-0.00280531	2	-7.06282e-05	1.09495e-06
2	0	0	0	1	286.92	-0.393409	-0.39365	-0.00281274	2	-7.08188e-05	1.10723e-06
2	0	0	1	1	286.987	-0.396741	-0.396984	-0.00282231	2	-7.10095e-05	1.12041e-06
2	0	0	0	1	287.053	-0.40007	-0.400302	-0.00282983	2	-7.12008e-05	1.13279e-06
2	0	0	1	1	287.12	-0.403399	-0.40362	-0.00283814	2	-7.13925e-05	1.14553e-06
2	0	0	0	1	287.186	-0.406731	-0.406962	-0.00284745	2	-7.15849e-05	1.15881e-06
2	0	0	0	1	287.253	-0.410069	-0.410303	-0.00285689	2	-7.17785e-05	1.17219e-06
2	0	0	1	1	287.32	-0.4134	-0.413625	-0.00286751	2	-7.19722e-05	1.18607e-06
2	0	0	0	1	287.386	-0.41673	-0.416973	-0.00287802	2	-7.21666e-05	1.20006e-06
2	0	0	1	1	287.453	-0.420059	-0.420296	-0.00288788	2	-7.23616e-05	1.21376e-06
2	0	0	0	1	287.52	-0.423391	-0.42362	-0.0029003	2	-7.25574e-05	1.22862e-06
2	0	0	0	1	287.586	-0.42673	-0.426952	-0.00291099	2	-7.27546e-05	1.24285e-06
2	0	0	1	1	287.653	-0.43006	-0.430268	-0.00292267	2	-7.29519e-05	1.25753e-06
2	0	0	0	1	287.72	-0.433391	-0.4336	-0.00293578	2	-7.315e-05	1.27295e-06
2	0	0	1	1	287.786	-0.436719	-0.436942	-0.0029485	2	-7.3349e-05	1.28832e-06
2	0	0	1	1	287.853	-0.440056	-0.440274	-0.00296171	2	-7.35492e-05	1.30397e-06
2	0	0	0	1	287.92	-0.44339	-0.443601	-0.00297474	2	-7.37503e-05	1.3196e-06
2	0	0	1	1	287.986	-0.446719	-0.446937	-0.00298863	2	-7.3952e-05	1.33573e-06
2	0	0	0	1	288.053	-0.450051	-0.450265	-0.003004	2	-7.41546e-05	1.3526e-06
2	0	0	1	1	288.119	-0.45338	-0.453589	-0.00301844	2	-7.43582e-05	1.36913e-06
2	0	0	1	1	288.186	-0.456715	-0.456933	-0.0030344	2	-7.45632e-05	1.38652e-06
2	0	0	0	1	288.253	-0.46005	-0.460275	-0.0030514	2	-7.47692e-05	1.40449e-06
2	0	0	1	1	288.319	-0.463379	-0.463581	-0.00306692	2	-7.49761e-05	1.42176e-06
2	0	0	0	1	288.386	-0.466711	-0.466923	-0.00308592	2	-7.51841e-05	1.44089e-06
2	0	0	1	1	288.453	-0.47004	-0.470264	-0.00310455	2	-7.53933e-05	1.45996e-06
2	0	0	1	1	288.519	-0.473374	-0.473599	-0.00312194	2	-7.56041e-05	1.47855e-06
2	0	0	0	1	288.586	-0.476711	-0.476935	-0.00314268	2	-7.58161e-05	1.49885e-06
2	0	0	1	1	288.653	-0.480039	-0.480265	-0.00316232	2	-7.60291e-05	1.51875e-06
2	0	0	0	1	288.719	-0.48337	-0.483614	-0.00318327	2	-7.62435e-05	1.53947e-06
2	0	0	1	1	288.786	-0.4867	-0.486918	-0.00320415	2	-7.64593e-05	1.56016e-06
2	0	0	1	1	288.853	-0.490039	-0.490243	-0.00322533	2	-7.66771e-05	1.58119e-06
2	0	0	0	1	288.919	-0.493371	-0.493576	-0.00324811	2	-7.68958e-05	1.60319e-06
2	0	0	1	1	288.986	-0.4967	-0.496905	-0.00327331	2	-7.71161e-05	1.62652e-06
2	0	0	0	1	289.052	-0.50003	-0.500247	-0.00329754	2	-7.7338e-05	1.64959e-06
2	0	0	1	1	289.119	-0.503361	-0.503586	-0.00332407	2	-7.75616e-05	1.67396e-06
2	0	0	1	1	289.186	-0.506699	-0.50691	-0.00334871	2	-7.77876e-05	1.6975e-06
2	0	0	0	1	289.252	-0.51003	-0.510269	-0.00337751	2	-7.80147e-05	1.72344e-06
2	0	0	1	1	289.319	-0.51336	-0.513562	-0.00340577	2	-7.82437e-05	1.74908e-06
2	0	0	0	1	289.386	-0.516689	-0.516881	-0.00343461	2	-7.84745e-05	1.77528e-06
2	0	0	1	1	289.452	-0.520021	-0.52023	-0.00346536	2	-7.87074e-05	1.80279e-06
2	0	0	1	1	289.519	-0.52336	-0.523572	-0.0034948	2	-7.8943e-05	1.82978e-06
2	0	0	0	1	289.586	-0.526691	-0.526899	-0.00352874	2	-7.918e-05	1.85929e-06
2	0	0	1	1	289.652	-0.53002	-0.530236	-0.00356118	2	-7.94193e-05	1.88827e-06
2	0	0	0	1	289.719	-0.533349	-0.533553	-0.00359549	2	-7.96607e-05	1.91838e-06
2	0	0	0	1	289.785	-0.536686	-0.536883	-0.00363133	2	-7.99048e-05	1.9496e-06
2	0	0	1	1	289.852	-0.54002	-0.540189	-0.00366776	2	-8.01514e-05	1.98128e-06
2	0	0	0	1	289.919	-0.54335	-0.543546	-0.00370701	2	-8.04001e-05	2.01493e-06
2	0	0	1	1	289.985	-0.546681	-0.546877	-0.00374609	2	-8.06515e-05	2.04865e-06
2	0	0	0	1	290.052	-0.550009	-0.550206	-0.00378712	2	-8.09054e-05	2.0837e-06
2	0	0	0	1	290.119	-0.553345	-0.553551	-0.00383003	2	-8.11626e-05	2.12012e-06
2	0	0	1	1	290.185	-0.55668	-0.556898	-0.00387222	2	-8.14227e-05	2.15643e-06
2	0	0	0	1	290.252	-0.560009	-0.560239	-0.00391674	2	-8.16852e-05	2.19431e-06
2	0	0	1	1	290.319	-0.563341	-0.56357	-0.00396277	2	-8.19506e-05	2.2333e-06
2	0	0	0	1	290.385	-0.56667	-0.566899	-0.00400958	2	-8.22193e-05	2.27303e-06
2	0	0	0	1	290.452	-0.570005	-0.57021	-0.00405764	2	-8.24914e-05	2.3137e-06
2	0	0	1	1	290.519	-0.573341	-0.573556	-0.00410738	2	-8.27669e-05	2.35581e-06
2	0	0	0	1	290.585	-0.576669	-0.576886	-0.00415619	2	-8.30452e-05	2.39765e-06
2	0	0	1	1	290.652	-0.58	-0.580211	-0.00420838	2	-8.3327e-05	2.44175e-06
2	0	0	0	1	290.718	-0.58333	-0.583538	-0.00426303	2	-8.36124e-05	2.48764e-06
2	0	0	0	1	290.785	-0.586664	-0.586877	-0.00431703	2	-8.39017e-05	2.53356e-06
2	0	0	1	1	290.852	-0.590001	-0.590222	-0.00437388	2	-8.41948e-05	2.58156e-06
2	0	0	0	1	290.918	-0.59333	-0.593547	-0.00442983	2	-8.44911e-05	2.62931e-06
2	0	0	1	1	290.985	-0.596659	-0.596876	-0.00448865	2	-8.47913e-05	2.67917e-06
2	0	0	0	1	291.032	-0.598991	-0.599187	-0.00452994	2	-8.50034e-05	2.71428e-06
2	0	0	0	1	291.048	-0.599827	-0.600047	-0.00454687	2	-8.50804e-05	2.72834e-06