File: TAP_Report/Data/MB_SHU/100 uM MB 10mM PB Second ITO_03_CV_C01_2.mpt
EC-Lab ASCII FILE
Nb header lines : 53

Cyclic Voltammetry

Run on channel : 1 (SN 0696)
User :
Electrode connection : standard
Ewe ctrl range : min = -10.00 V, max = 10.00 V
Ewe,I filtering : 50 kHz
Channel : Grounded
Acquisition started on : 05/17/2017 12:14:48
Saved on :
	File : 100 uM MB 10mM PB Second ITO_03_CV_C01.mpr
	Directory : \\userfs\st659\w2k\EC-Lab\Data\ITO Characterisation 17-5-17\
	Host : 144.32.136.43
Device : SP-300 (SN 0182)
Address : USB
EC-Lab for windows v10.44 (software)
Internet server v10.44 (firmware)
Command interpretor v10.44 (firmware)
Electrode material :
Initial state :
Electrolyte :
Comments :
Cable : standard
Electrode surface area : 0.001 cm²
Characteristic mass : 0.001 g
Equivalent Weight : 0.000 g/eq.
Density : 0.000 g/cm3
Ei (V)              0.000
vs.                 Eoc
dE/dt               100.000
dE/dt unit          mV/s
E1 (V)              0.100
vs.                 Ref
Step percent        50
N                   10
E range min (V)     -10.000
E range max (V)     10.000
I Range             Auto
I Range min         Unset
I Range max         Unset
I Range init        Unset
Bandwidth           8
E2 (V)              -0.600
vs.                 Ref
nc cycles           2
Reverse Scan        1
Ef (V)              0.000
vs.                 Eoc

mode	ox/red	error	control changes	counter inc.	time/s	control/V	Ewe/V	<I>/mA	cycle number	(Q-Qo)/C	P/W
2	1	0	1	1	349.892	-0.60016	-0.600363	-0.00566818	2	-2.37576e-05	3.40297e-06
2	1	0	0	1	349.911	-0.598328	-0.598529	-0.00518884	2	-2.38531e-05	3.10567e-06
2	1	0	1	1	349.944	-0.594989	-0.59521	-0.00495659	2	-2.40205e-05	2.95021e-06
2	1	0	1	1	349.977	-0.59167	-0.591901	-0.00479333	2	-2.41805e-05	2.83717e-06
2	1	0	0	1	350.011	-0.588329	-0.588558	-0.00464798	2	-2.43364e-05	2.7356e-06
2	1	0	0	1	350.044	-0.585006	-0.585229	-0.00451951	2	-2.44868e-05	2.64495e-06
2	1	0	1	1	350.077	-0.581667	-0.581876	-0.00440382	2	-2.46341e-05	2.56248e-06
2	1	0	0	1	350.111	-0.578329	-0.578565	-0.00429654	2	-2.47776e-05	2.48582e-06
2	1	0	0	1	350.144	-0.57501	-0.57525	-0.00419626	2	-2.49169e-05	2.41389e-06
2	1	0	1	1	350.177	-0.571671	-0.571904	-0.00410296	2	-2.50537e-05	2.3465e-06
2	1	0	1	1	350.211	-0.568346	-0.568572	-0.00401498	2	-2.51867e-05	2.2828e-06
2	1	0	0	1	350.244	-0.565007	-0.565227	-0.00392744	2	-2.53176e-05	2.2199e-06
2	1	0	1	1	350.277	-0.561668	-0.561892	-0.00384954	2	-2.54457e-05	2.16302e-06
2	1	0	1	1	350.311	-0.55835	-0.558572	-0.00377321	2	-2.55705e-05	2.10761e-06
2	1	0	0	1	350.344	-0.555011	-0.555245	-0.00370102	2	-2.56936e-05	2.05497e-06
2	1	0	0	1	350.377	-0.551686	-0.551895	-0.00362914	2	-2.58135e-05	2.00291e-06
2	1	0	1	1	350.411	-0.548347	-0.54856	-0.00356497	2	-2.5932e-05	1.9556e-06
2	1	0	0	1	350.444	-0.545008	-0.54521	-0.00350253	2	-2.60483e-05	1.90962e-06
2	1	0	0	1	350.477	-0.541689	-0.541893	-0.0034398	2	-2.61618e-05	1.864e-06
2	1	0	1	1	350.511	-0.538351	-0.53855	-0.0033801	2	-2.6274e-05	1.82035e-06
2	1	0	0	1	350.544	-0.535016	-0.535222	-0.00332485	2	-2.63839e-05	1.77954e-06
2	1	0	0	1	350.577	-0.531686	-0.531892	-0.00326966	2	-2.6492e-05	1.73911e-06
2	1	0	1	1	350.611	-0.528348	-0.528554	-0.00321873	2	-2.65987e-05	1.70127e-06
2	1	0	1	1	350.644	-0.525029	-0.525254	-0.0031675	2	-2.6703e-05	1.66374e-06
2	1	0	0	1	350.677	-0.52169	-0.521919	-0.00311717	2	-2.68063e-05	1.62691e-06
2	1	0	1	1	350.71	-0.518358	-0.518578	-0.00306925	2	-2.69076e-05	1.59165e-06
2	1	0	1	1	350.744	-0.515026	-0.515238	-0.00302523	2	-2.70073e-05	1.55871e-06
2	1	0	0	1	350.777	-0.511687	-0.511916	-0.00297857	2	-2.71059e-05	1.52478e-06
2	1	0	0	1	350.81	-0.508369	-0.50861	-0.0029355	2	-2.72024e-05	1.49303e-06
2	1	0	1	1	350.844	-0.50503	-0.505264	-0.00289291	2	-2.7298e-05	1.46169e-06
2	1	0	0	1	350.877	-0.5017	-0.501933	-0.00285176	2	-2.73919e-05	1.43139e-06
2	1	0	0	1	350.91	-0.498366	-0.49858	-0.00281041	2	-2.74845e-05	1.40121e-06
2	1	0	1	1	350.944	-0.495027	-0.495229	-0.0027718	2	-2.7576e-05	1.37267e-06
2	1	0	1	1	350.977	-0.491708	-0.491934	-0.00273456	2	-2.76658e-05	1.34522e-06
2	1	0	0	1	351.01	-0.48837	-0.488593	-0.00269833	2	-2.77548e-05	1.31839e-06
2	1	0	1	1	351.044	-0.485031	-0.485259	-0.00266143	2	-2.78426e-05	1.29148e-06
2	1	0	1	1	351.077	-0.481705	-0.481931	-0.00262444	2	-2.79286e-05	1.2648e-06
2	1	0	0	1	351.11	-0.478367	-0.478594	-0.0025898	2	-2.8014e-05	1.23947e-06
2	1	0	0	1	351.144	-0.475048	-0.475265	-0.00255484	2	-2.80977e-05	1.21423e-06
2	1	0	1	1	351.177	-0.471709	-0.471948	-0.00252278	2	-2.81808e-05	1.19062e-06
2	1	0	0	1	351.21	-0.468371	-0.468574	-0.00248925	2	-2.82629e-05	1.1664e-06
2	1	0	0	1	351.244	-0.465047	-0.465242	-0.00245454	2	-2.83432e-05	1.14195e-06
2	1	0	1	1	351.277	-0.461706	-0.461916	-0.00242641	2	-2.84231e-05	1.1208e-06
2	1	0	1	1	351.31	-0.458388	-0.458583	-0.00239585	2	-2.85015e-05	1.09869e-06
2	1	0	0	1	351.344	-0.455049	-0.455242	-0.00236519	2	-2.85793e-05	1.07674e-06
2	1	0	1	1	351.377	-0.45171	-0.451904	-0.00233532	2	-2.86561e-05	1.05534e-06
2	1	0	1	1	351.41	-0.448387	-0.448564	-0.00230545	2	-2.87315e-05	1.03414e-06
2	1	0	0	1	351.444	-0.445046	-0.445257	-0.0022795	2	-2.88064e-05	1.01496e-06
2	1	0	0	1	351.477	-0.441727	-0.441927	-0.00225035	2	-2.88799e-05	9.94492e-07
2	1	0	1	1	351.51	-0.438389	-0.438593	-0.00222244	2	-2.89529e-05	9.74745e-07
2	1	0	0	1	351.544	-0.43505	-0.435261	-0.00219348	2	-2.90249e-05	9.54736e-07
2	1	0	0	1	351.577	-0.431729	-0.431946	-0.00216719	2	-2.90957e-05	9.3611e-07
2	1	0	1	1	351.61	-0.428386	-0.4286	-0.00214047	2	-2.91659e-05	9.17404e-07
2	1	0	1	1	351.643	-0.425067	-0.425289	-0.00211533	2	-2.92349e-05	8.99628e-07
2	1	0	0	1	351.677	-0.421728	-0.421949	-0.00208863	2	-2.93034e-05	8.81293e-07
2	1	0	1	1	351.71	-0.41839	-0.418615	-0.00206417	2	-2.93711e-05	8.64094e-07
2	1	0	1	1	351.743	-0.415071	-0.415305	-0.00203843	2	-2.94375e-05	8.46569e-07
2	1	0	0	1	351.777	-0.411725	-0.411942	-0.00201272	2	-2.95034e-05	8.29121e-07
2	1	0	0	1	351.81	-0.408407	-0.40862	-0.00198864	2	-2.95682e-05	8.12597e-07
2	1	0	1	1	351.843	-0.405068	-0.405301	-0.00196425	2	-2.96325e-05	7.96111e-07
2	1	0	0	1	351.877	-0.401729	-0.401958	-0.00193978	2	-2.9696e-05	7.7971e-07
2	1	0	0	1	351.91	-0.398411	-0.398658	-0.00191604	2	-2.97584e-05	7.63846e-07
2	1	0	1	1	351.943	-0.395067	-0.395309	-0.00189279	2	-2.98203e-05	7.48239e-07
2	1	0	1	1	351.977	-0.391746	-0.391989	-0.00186799	2	-2.9881e-05	7.32231e-07
2	1	0	0	1	352.01	-0.388408	-0.388643	-0.00184564	2	-2.99414e-05	7.17296e-07
2	1	0	1	1	352.043	-0.385069	-0.385313	-0.00182176	2	-3.0001e-05	7.01948e-07
2	1	0	1	1	352.077	-0.38175	-0.381994	-0.00179909	2	-3.00594e-05	6.87242e-07
2	1	0	0	1	352.11	-0.378409	-0.378625	-0.00177754	2	-3.01174e-05	6.73021e-07
2	1	0	0	1	352.143	-0.375086	-0.375289	-0.00175375	2	-3.01743e-05	6.58162e-07
2	1	0	1	1	352.177	-0.371747	-0.37194	-0.00173173	2	-3.02309e-05	6.441e-07
2	1	0	0	1	352.21	-0.368409	-0.368602	-0.0017096	2	-3.02867e-05	6.30161e-07
2	1	0	0	1	352.243	-0.36509	-0.365298	-0.00168831	2	-3.03414e-05	6.16737e-07
2	1	0	1	1	352.277	-0.361749	-0.361978	-0.00166774	2	-3.03958e-05	6.03685e-07
2	1	0	1	1	352.31	-0.358426	-0.358653	-0.00164485	2	-3.04491e-05	5.89932e-07
2	1	0	0	1	352.343	-0.355087	-0.355303	-0.00162422	2	-3.0502e-05	5.77091e-07
2	1	0	1	1	352.377	-0.351748	-0.351966	-0.00160259	2	-3.05542e-05	5.64059e-07
2	1	0	1	1	352.41	-0.34843	-0.348644	-0.00158034	2	-3.06053e-05	5.50975e-07
2	1	0	0	1	352.443	-0.345091	-0.345325	-0.00156045	2	-3.06561e-05	5.38863e-07
2	1	0	0	1	352.476	-0.341765	-0.342001	-0.00153792	2	-3.07058e-05	5.25971e-07
2	1	0	1	1	352.51	-0.338427	-0.338631	-0.00151498	2	-3.07551e-05	5.13019e-07
2	1	0	0	1	352.543	-0.335088	-0.335274	-0.00149466	2	-3.08037e-05	5.01122e-07
2	1	0	0	1	352.576	-0.331769	-0.331943	-0.00147318	2	-3.08513e-05	4.89012e-07
2	1	0	1	1	352.61	-0.328431	-0.328602	-0.00145247	2	-3.08985e-05	4.77285e-07
2	1	0	0	1	352.643	-0.325096	-0.325261	-0.00143005	2	-3.09448e-05	4.65139e-07
2	1	0	0	1	352.676	-0.321766	-0.321955	-0.00140917	2	-3.09904e-05	4.53691e-07
2	1	0	1	1	352.71	-0.318428	-0.318618	-0.00138784	2	-3.10354e-05	4.42191e-07
2	1	0	1	1	352.743	-0.315109	-0.315307	-0.00136623	2	-3.10795e-05	4.30781e-07
2	1	0	0	1	352.776	-0.31177	-0.311962	-0.00134386	2	-3.11231e-05	4.19233e-07
2	1	0	1	1	352.81	-0.308438	-0.308637	-0.00132186	2	-3.11658e-05	4.07975e-07
2	1	0	1	1	352.843	-0.305106	-0.305283	-0.00129915	2	-3.12077e-05	3.96609e-07
2	1	0	0	1	352.876	-0.301767	-0.301971	-0.00127736	2	-3.12491e-05	3.85726e-07
2	1	0	0	1	352.91	-0.298449	-0.298635	-0.00125286	2	-3.12894e-05	3.74146e-07
2	1	0	1	1	352.943	-0.29511	-0.295282	-0.001228	2	-3.13291e-05	3.62605e-07
2	1	0	0	1	352.976	-0.29178	-0.291956	-0.00120526	2	-3.1368e-05	3.51883e-07
2	1	0	0	1	353.01	-0.288446	-0.288624	-0.00117884	2	-3.1406e-05	3.40241e-07
2	1	0	1	1	353.043	-0.285107	-0.285253	-0.00115386	2	-3.14433e-05	3.29141e-07
2	1	0	1	1	353.076	-0.281788	-0.281937	-0.00112774	2	-3.14795e-05	3.17951e-07
2	1	0	0	1	353.11	-0.27845	-0.278615	-0.00110121	2	-3.1515e-05	3.06815e-07
2	1	0	1	1	353.143	-0.275111	-0.275296	-0.00107227	2	-3.15496e-05	2.9519e-07
2	1	0	1	1	353.176	-0.271786	-0.271957	-0.00104182	2	-3.15831e-05	2.8333e-07
2	1	0	0	1	353.21	-0.268447	-0.268635	-0.00101125	2	-3.16157e-05	2.71656e-07
2	1	0	0	1	353.243	-0.265128	-0.265308	-0.000978611	2	-3.16471e-05	2.59633e-07
2	1	0	1	1	353.276	-0.261789	-0.261944	-0.000945043	2	-3.16775e-05	2.47548e-07
2	1	0	0	1	353.31	-0.258451	-0.258631	-0.000910355	2	-3.17068e-05	2.35446e-07
2	1	0	0	1	353.343	-0.255125	-0.255306	-0.000872717	2	-3.17347e-05	2.2281e-07
2	1	0	1	1	353.376	-0.251787	-0.251973	-0.000831392	2	-3.17615e-05	2.09489e-07
2	1	0	1	1	353.409	-0.248468	-0.248653	-0.000790215	2	-3.17868e-05	1.96489e-07
2	1	0	0	1	353.443	-0.245129	-0.245308	-0.000744191	2	-3.18107e-05	1.82556e-07
2	1	0	1	1	353.476	-0.24179	-0.24197	-0.000694336	2	-3.1833e-05	1.68008e-07
2	1	0	1	1	353.509	-0.238467	-0.238634	-0.000644183	2	-3.18535e-05	1.53724e-07
2	1	0	0	1	353.543	-0.235126	-0.235297	-0.000588112	2	-3.18724e-05	1.38381e-07
2	1	0	0	1	353.576	-0.231807	-0.232001	-0.000530776	2	-3.18894e-05	1.23141e-07
2	1	0	1	1	353.626	-0.226802	-0.226982	-0.000412989	2	-3.19111e-05	9.3741e-08
2	1	0	0	1	353.676	-0.221809	-0.221958	-0.000284782	2	-3.19293e-05	6.32097e-08
2	1	0	1	1	353.709	-0.218466	-0.218593	-0.000204509	2	-3.1937e-05	4.47041e-08
2	1	0	1	1	353.743	-0.215147	-0.215281	-0.000119817	2	-3.1942e-05	2.57943e-08
2	1	0	0	1	353.776	-0.211808	-0.211928	-2.5195e-05	2	-3.19439e-05	5.33951e-09
2	1	0	1	1	353.809	-0.20847	-0.208572	7.56714e-05	2	-3.19426e-05	1.57829e-08
2	1	0	1	1	353.843	-0.205151	-0.205245	0.000183094	2	-3.19379e-05	3.75791e-08
2	1	0	0	1	353.876	-0.201806	-0.201907	0.000298843	2	-3.19293e-05	6.03386e-08
2	1	0	0	1	353.909	-0.198487	-0.198576	0.000421282	2	-3.19169e-05	8.36565e-08
2	1	0	1	1	353.943	-0.195148	-0.195239	0.000547117	2	-3.19003e-05	1.06818e-07
2	1	0	0	1	353.976	-0.191809	-0.191905	0.000681379	2	-3.18793e-05	1.3076e-07
2	1	0	0	1	354.009	-0.188491	-0.188587	0.000818992	2	-3.18539e-05	1.54451e-07
2	1	0	1	1	354.059	-0.183489	-0.183622	0.00101623	2	-3.18059e-05	1.86603e-07
2	1	0	0	1	354.109	-0.178488	-0.178664	0.00120612	2	-3.17505e-05	2.1549e-07
2	1	0	1	1	354.143	-0.175149	-0.175314	0.00133743	2	-3.17062e-05	2.3447e-07
2	1	0	1	1	354.176	-0.17183	-0.171987	0.00146372	2	-3.1658e-05	2.51741e-07
2	1	0	0	1	354.209	-0.168489	-0.168644	0.00157567	2	-3.16055e-05	2.65726e-07
2	1	0	0	1	354.242	-0.165166	-0.165305	0.00167857	2	-3.15499e-05	2.77477e-07
2	1	0	1	1	354.276	-0.161827	-0.161969	0.00176257	2	-3.14907e-05	2.85483e-07
2	1	0	0	1	354.309	-0.158489	-0.158622	0.00182811	2	-3.14291e-05	2.89979e-07
2	1	0	0	1	354.342	-0.15517	-0.155304	0.0018787	2	-3.13659e-05	2.91769e-07
2	1	0	1	1	354.376	-0.151829	-0.151969	0.00190687	2	-3.1301e-05	2.89786e-07
2	1	0	1	1	354.409	-0.148506	-0.148651	0.00192003	2	-3.12358e-05	2.85414e-07
2	1	0	0	1	354.442	-0.145167	-0.145303	0.00191885	2	-3.11701e-05	2.78815e-07
2	1	0	1	1	354.476	-0.141828	-0.141987	0.00190079	2	-3.11047e-05	2.69888e-07
2	1	0	1	1	354.509	-0.13851	-0.138646	0.00187775	2	-3.10403e-05	2.60343e-07
2	1	0	0	1	354.542	-0.135171	-0.135294	0.00184153	2	-3.09766e-05	2.49147e-07
2	1	0	0	1	354.576	-0.131846	-0.131974	0.00179666	2	-3.09147e-05	2.37112e-07
2	1	0	1	1	354.609	-0.128507	-0.128641	0.00174842	2	-3.08539e-05	2.24918e-07
2	1	0	0	1	354.642	-0.125168	-0.125282	0.0016958	2	-3.07948e-05	2.12454e-07
2	1	0	0	1	354.676	-0.121849	-0.121959	0.00164219	2	-3.07378e-05	2.0028e-07
2	1	0	1	1	354.709	-0.118511	-0.118616	0.00158812	2	-3.06823e-05	1.88376e-07
2	1	0	0	1	354.742	-0.115176	-0.115293	0.00153487	2	-3.06287e-05	1.7696e-07
2	1	0	0	1	354.776	-0.111846	-0.111944	0.00148454	2	-3.05769e-05	1.66185e-07
2	1	0	1	1	354.809	-0.108508	-0.108615	0.00143326	2	-3.05266e-05	1.55673e-07
2	1	0	1	1	354.842	-0.105189	-0.105313	0.00138657	2	-3.04782e-05	1.46023e-07
2	1	0	0	1	354.876	-0.10185	-0.101966	0.00134208	2	-3.0431e-05	1.36847e-07
2	1	0	1	1	354.909	-0.0985182	-0.0986591	0.00130281	2	-3.03854e-05	1.28534e-07
2	1	0	1	1	354.942	-0.0951862	-0.0953143	0.00126439	2	-3.0341e-05	1.20515e-07
2	1	0	0	1	354.976	-0.0918474	-0.0919585	0.00122959	2	-3.02977e-05	1.13071e-07
2	1	0	0	1	355.009	-0.0885287	-0.0886549	0.0011944	2	-3.02559e-05	1.05889e-07
2	1	0	1	1	355.042	-0.08519	-0.08533	0.00116339	2	-3.02149e-05	9.92719e-08
2	1	0	0	1	355.075	-0.0818602	-0.0819866	0.00113597	2	-3.0175e-05	9.31341e-08
2	1	0	0	1	355.109	-0.0785259	-0.0786804	0.00110851	2	-3.01361e-05	8.72182e-08
2	1	0	1	1	355.142	-0.0751871	-0.0753363	0.00108494	2	-3.00978e-05	8.17356e-08
2	1	0	1	1	355.175	-0.0718684	-0.0720161	0.00106215	2	-3.00606e-05	7.64917e-08
2	1	0	0	1	355.209	-0.0685297	-0.068664	0.00104095	2	-3.00238e-05	7.1476e-08
2	1	0	1	1	355.242	-0.0651998	-0.0653308	0.00102214	2	-2.99878e-05	6.67775e-08
2	1	0	1	1	355.275	-0.0618655	-0.0620139	0.00100384	2	-2.99525e-05	6.22522e-08
2	1	0	0	1	355.309	-0.0585268	-0.0586791	0.000986556	2	-2.99176e-05	5.78902e-08
2	1	0	0	1	355.342	-0.0552081	-0.0553611	0.000970701	2	-2.98835e-05	5.3739e-08
2	1	0	1	1	355.375	-0.0518693	-0.0520111	0.00095727	2	-2.98496e-05	4.97887e-08
2	1	0	0	1	355.409	-0.0485306	-0.0486624	0.000944283	2	-2.98162e-05	4.59511e-08
2	1	0	0	1	355.442	-0.0452052	-0.0453529	0.000932222	2	-2.97835e-05	4.2279e-08
2	1	0	1	1	355.475	-0.0418665	-0.0420022	0.000921789	2	-2.97509e-05	3.87172e-08
2	1	0	1	1	355.509	-0.0385478	-0.0386826	0.000911875	2	-2.97188e-05	3.52737e-08
2	1	0	0	1	355.542	-0.035209	-0.0353364	0.000899234	2	-2.9687e-05	3.17757e-08
2	1	0	1	1	355.575	-0.0318703	-0.0319977	0.000890561	2	-2.96554e-05	2.84959e-08
2	1	0	1	1	355.609	-0.0285471	-0.0286684	0.000883509	2	-2.96243e-05	2.53287e-08
2	1	0	0	1	355.642	-0.0252062	-0.0253241	0.000874179	2	-2.95934e-05	2.21378e-08
2	1	0	0	1	355.675	-0.0218874	-0.0220098	0.000866949	2	-2.95628e-05	1.90814e-08
2	1	0	1	1	355.709	-0.0185487	-0.0187064	0.000859637	2	-2.95324e-05	1.60807e-08
2	1	0	0	1	355.742	-0.01521	-0.0153559	0.000851048	2	-2.95022e-05	1.30686e-08
2	1	0	0	1	355.775	-0.011889	-0.0120414	0.000846867	2	-2.94723e-05	1.01975e-08
2	1	0	1	1	355.809	-0.00854586	-0.00870222	0.000840802	2	-2.94424e-05	7.31685e-09
2	1	0	1	1	355.842	-0.00522712	-0.00536884	0.000836165	2	-2.94129e-05	4.48923e-09
2	1	0	0	1	355.875	-0.0018884	-0.00203595	0.000830993	2	-2.93835e-05	1.69186e-09
2	1	0	1	1	355.909	0.00145628	0.00131066	0.000828351	2	-2.93541e-05	1.08568e-09
2	1	0	1	1	355.942	0.00476906	0.00464334	0.000823584	2	-2.9325e-05	3.82418e-09
2	1	0	0	1	355.975	0.00811446	0.00799357	0.000820132	2	-2.9296e-05	6.55578e-09
2	1	0	0	1	356.008	0.0114332	0.0113153	0.000815688	2	-2.92672e-05	9.22978e-09
2	1	0	1	1	356.042	0.0147719	0.0146857	0.000812919	2	-2.92383e-05	1.19383e-08
2	1	0	0	1	356.075	0.0181106	0.0180059	0.000809202	2	-2.92095e-05	1.45704e-08
2	1	0	0	1	356.108	0.0214294	0.0213268	0.000807489	2	-2.91811e-05	1.72212e-08
2	1	0	1	1	356.142	0.0247725	0.0246529	0.000805838	2	-2.91525e-05	1.98662e-08
2	1	0	1	1	356.175	0.0280935	0.027987	0.000802901	2	-2.91241e-05	2.24707e-08
2	1	0	0	1	356.208	0.0314322	0.0313168	0.000800819	2	-2.90957e-05	2.50791e-08
2	1	0	1	1	356.242	0.0347709	0.0346591	0.000799931	2	-2.90674e-05	2.77249e-08
2	1	0	1	1	356.275	0.0380897	0.0379906	0.000797515	2	-2.90392e-05	3.02981e-08
2	1	0	0	1	356.308	0.0414329	0.0413118	0.000797758	2	-2.90109e-05	3.29568e-08
2	1	0	0	1	356.342	0.0447538	0.0446454	0.000796282	2	-2.89828e-05	3.55503e-08
2	1	0	1	1	356.375	0.0480925	0.0480106	0.000795365	2	-2.89546e-05	3.8186e-08
2	1	0	0	1	356.408	0.0514313	0.051345	0.000793742	2	-2.89264e-05	4.07546e-08
2	1	0	0	1	356.442	0.05475	0.0546718	0.000793471	2	-2.88984e-05	4.33805e-08
2	1	0	1	1	356.475	0.0580909	0.0580366	0.00079375	2	-2.88703e-05	4.60666e-08
2	1	0	1	1	356.508	0.0614141	0.0613519	0.000793573	2	-2.88423e-05	4.86872e-08
2	1	0	0	1	356.542	0.0647528	0.064671	0.00079261	2	-2.88142e-05	5.12589e-08
2	1	0	1	1	356.575	0.0680916	0.0680099	0.000792323	2	-2.87861e-05	5.38858e-08
2	1	0	1	1	356.608	0.0714103	0.0713079	0.000791603	2	-2.87582e-05	5.64476e-08
2	1	0	0	1	356.642	0.074749	0.0746635	0.000792765	2	-2.87301e-05	5.91907e-08
2	1	0	0	1	356.675	0.0780744	0.0779979	0.000794482	2	-2.87021e-05	6.19679e-08
2	1	0	1	1	356.708	0.0814132	0.0813236	0.000792581	2	-2.86739e-05	6.44555e-08
2	1	0	0	1	356.742	0.0847519	0.0846417	0.000793626	2	-2.86458e-05	6.71739e-08
2	1	0	0	1	356.775	0.0880706	0.0879795	0.000794171	2	-2.86178e-05	6.98708e-08
2	1	0	1	1	356.808	0.0914093	0.0913199	0.000795876	2	-2.85896e-05	7.26793e-08
2	1	0	0	1	356.841	0.0947436	0.0946389	0.000796691	2	-2.85615e-05	7.5398e-08
2	1	0	0	1	356.875	0.0980735	0.0979848	0.00079775	2	-2.85333e-05	7.81674e-08
2	0	0	1	1	356.894	0.0999061	0.0997879	0.00079014	2	-2.85174e-05	7.88464e-08
2	0	0	0	1	356.912	0.0980668	0.097968	0.000585676	2	-2.85072e-05	5.73775e-08
2	0	0	0	1	356.945	0.0947458	0.0946449	0.000494295	2	-2.84911e-05	4.67825e-08
2	0	0	1	1	356.979	0.0914027	0.0912892	0.000433143	2	-2.84773e-05	3.95413e-08
2	0	0	1	1	357.012	0.0880839	0.0879746	0.000379233	2	-2.84655e-05	3.33629e-08
2	0	0	0	1	357.045	0.0847452	0.0846313	0.000332436	2	-2.84552e-05	2.81345e-08
2	0	0	1	1	357.095	0.0797492	0.0796429	0.000253972	2	-2.84441e-05	2.02271e-08
2	0	0	0	1	357.145	0.0747424	0.074589	0.000171688	2	-2.84351e-05	1.2806e-08
2	0	0	0	1	357.178	0.0714236	0.0712707	0.000135564	2	-2.84305e-05	9.66171e-09
2	0	0	1	1	357.212	0.0680849	0.0679258	0.000100727	2	-2.8427e-05	6.84196e-09
2	0	0	0	1	357.245	0.0647462	0.0646163	6.82407e-05	2	-2.84246e-05	4.40946e-09
2	0	0	0	1	357.278	0.0614274	0.0612857	3.51311e-05	2	-2.84233e-05	2.15303e-09
2	0	0	1	1	357.312	0.0580843	0.0579583	4.03987e-06	2	-2.84231e-05	2.34144e-10
2	0	0	1	1	357.345	0.0547633	0.0546175	-2.74039e-05	2	-2.8424e-05	1.49673e-09
2	0	0	0	1	357.378	0.0514246	0.0512798	-5.61574e-05	2	-2.84258e-05	2.87974e-09
2	0	0	1	1	357.412	0.0480859	0.0479157	-8.42578e-05	2	-2.84286e-05	4.03728e-09
2	0	0	1	1	357.445	0.0447671	0.044603	-0.000113918	2	-2.84324e-05	5.0811e-09
2	0	0	0	1	357.478	0.0414262	0.0412316	-0.000140732	2	-2.84371e-05	5.80262e-09
2	0	0	0	1	357.512	0.038103	0.03791	-0.000166163	2	-2.84426e-05	6.29924e-09
2	0	0	1	1	357.545	0.0347643	0.0345799	-0.000193608	2	-2.84491e-05	6.69496e-09
2	0	0	0	1	357.578	0.0314256	0.0312346	-0.000218937	2	-2.84564e-05	6.83842e-09
2	0	0	0	1	357.612	0.0281068	0.0279178	-0.000243298	2	-2.84645e-05	6.79234e-09
2	0	0	1	1	357.645	0.0247659	0.0245842	-0.000269164	2	-2.84735e-05	6.6172e-09
2	0	0	1	1	357.678	0.0214427	0.0212734	-0.00029169	2	-2.84833e-05	6.20524e-09
2	0	0	0	1	357.712	0.018104	0.0179256	-0.000315976	2	-2.84939e-05	5.66405e-09
2	0	0	1	1	357.745	0.0147653	0.0145926	-0.000340147	2	-2.85053e-05	4.96362e-09
2	0	0	1	1	357.778	0.0114465	0.011261	-0.000362987	2	-2.85174e-05	4.08758e-09
2	0	0	0	1	357.812	0.00810779	0.0079119	-0.000385791	2	-2.85303e-05	3.05234e-09
2	0	0	0	1	357.845	0.00478239	0.00458849	-0.000407537	2	-2.85439e-05	1.86998e-09
2	0	0	1	1	357.878	0.00144367	0.00123764	-0.000431519	2	-2.85584e-05	5.34065e-10
2	0	0	0	1	357.912	-0.00189506	-0.00213906	-0.000452193	2	-2.85736e-05	9.67269e-10
2	0	0	0	1	357.945	-0.00521379	-0.00544882	-0.000472657	2	-2.85894e-05	2.57542e-09
2	0	0	1	1	357.978	-0.00855252	-0.00877506	-0.000495001	2	-2.8606e-05	4.34366e-09
2	0	0	0	1	358.011	-0.0118868	-0.0121224	-0.000515899	2	-2.86232e-05	6.25394e-09
2	0	0	0	1	358.045	-0.0152166	-0.0154363	-0.00053531	2	-2.86412e-05	8.26323e-09
2	0	0	1	1	358.078	-0.0185554	-0.018785	-0.000556911	2	-2.86599e-05	1.04616e-08
2	0	0	1	1	358.111	-0.0218741	-0.0220782	-0.00057689	2	-2.86791e-05	1.27367e-08
2	0	0	0	1	358.145	-0.0252128	-0.0254225	-0.000596474	2	-2.86991e-05	1.51639e-08
2	0	0	1	1	358.178	-0.0285449	-0.0287449	-0.000617665	2	-2.87198e-05	1.77547e-08
2	0	0	1	1	358.211	-0.031877	-0.0321019	-0.000637292	2	-2.87411e-05	2.04583e-08
2	0	0	0	1	358.245	-0.0352157	-0.0354526	-0.000656073	2	-2.87632e-05	2.32595e-08
2	0	0	0	1	358.278	-0.0385344	-0.0387615	-0.000676593	2	-2.87857e-05	2.62258e-08
2	0	0	1	1	358.311	-0.0418732	-0.0421175	-0.000696682	2	-2.88091e-05	2.93425e-08
2	0	0	0	1	358.345	-0.045203	-0.0454636	-0.000715852	2	-2.8833e-05	3.25452e-08
2	0	0	0	1	358.378	-0.0485373	-0.0487822	-0.000734161	2	-2.88576e-05	3.5814e-08
2	0	0	1	1	358.411	-0.051876	-0.0521089	-0.000753565	2	-2.88829e-05	3.92674e-08
2	0	0	1	1	358.445	-0.0551947	-0.0554378	-0.000773121	2	-2.89086e-05	4.28602e-08
2	0	0	0	1	358.478	-0.0585335	-0.0587686	-0.000791549	2	-2.89352e-05	4.65183e-08
2	0	0	1	1	358.511	-0.0618722	-0.0621278	-0.000809883	2	-2.89624e-05	5.03163e-08
2	0	0	1	1	358.545	-0.0651976	-0.0654198	-0.000830925	2	-2.899e-05	5.4359e-08
2	0	0	0	1	358.578	-0.0685363	-0.0687883	-0.000848862	2	-2.90185e-05	5.83918e-08
2	0	0	0	1	358.611	-0.0718551	-0.0721012	-0.000869264	2	-2.90475e-05	6.2675e-08
2	0	0	1	1	358.645	-0.0751938	-0.0754502	-0.000889063	2	-2.90773e-05	6.708e-08
2	0	0	0	1	358.678	-0.0785325	-0.0787912	-0.000908722	2	-2.91077e-05	7.15993e-08
2	0	0	0	1	358.711	-0.0818579	-0.0821072	-0.000929916	2	-2.91386e-05	7.63528e-08
2	0	0	1	1	358.745	-0.0851966	-0.0854332	-0.000948091	2	-2.91704e-05	8.09984e-08
2	0	0	1	1	358.778	-0.0885154	-0.0887571	-0.00097041	2	-2.92027e-05	8.61308e-08
2	0	0	0	1	358.828	-0.0935233	-0.0936971	-0.000980221	2	-2.92533e-05	9.18439e-08
2	0	0	1	1	358.878	-0.098516	-0.0986844	-0.00100038	2	-2.93048e-05	9.87215e-08
2	0	0	0	1	358.911	-0.101857	-0.102008	-0.00102355	2	-2.93402e-05	1.0441e-07
2	0	0	0	1	358.944	-0.105176	-0.105321	-0.00104804	2	-2.93763e-05	1.1038e-07
2	0	0	1	1	358.978	-0.108514	-0.108649	-0.0010759	2	-2.94135e-05	1.16895e-07
2	0	0	0	1	359.011	-0.111853	-0.111988	-0.00110429	2	-2.94515e-05	1.23667e-07
2	0	0	0	1	359.044	-0.115174	-0.115303	-0.00113701	2	-2.94904e-05	1.31101e-07
2	0	0	1	1	359.078	-0.118517	-0.118654	-0.00116833	2	-2.95305e-05	1.38627e-07
2	0	0	1	1	359.111	-0.121836	-0.121962	-0.00120189	2	-2.95715e-05	1.46585e-07
2	0	0	0	1	359.144	-0.125175	-0.125303	-0.00124092	2	-2.9614e-05	1.55491e-07
2	0	0	1	1	359.178	-0.128513	-0.128677	-0.00128146	2	-2.96578e-05	1.64894e-07
2	0	0	1	1	359.211	-0.131832	-0.131989	-0.00132557	2	-2.97028e-05	1.74961e-07
2	0	0	0	1	359.244	-0.135178	-0.13533	-0.00137335	2	-2.97495e-05	1.85856e-07
2	0	0	0	1	359.278	-0.138496	-0.138662	-0.00142603	2	-2.97977e-05	1.97737e-07
2	0	0	1	1	359.311	-0.141835	-0.141999	-0.00148217	2	-2.98479e-05	2.10467e-07
2	0	0	0	1	359.344	-0.145174	-0.145335	-0.0015448	2	-2.99001e-05	2.24513e-07
2	0	0	0	1	359.378	-0.148493	-0.148656	-0.0016105	2	-2.99542e-05	2.3941e-07
2	0	0	1	1	359.411	-0.151836	-0.151988	-0.00168637	2	-3.00109e-05	2.56307e-07
2	0	0	1	1	359.444	-0.155157	-0.155318	-0.00176468	2	-3.00698e-05	2.74086e-07
2	0	0	0	1	359.478	-0.158495	-0.158661	-0.00185354	2	-3.01319e-05	2.94084e-07
2	0	0	1	1	359.511	-0.161834	-0.162	-0.00195007	2	-3.01972e-05	3.15911e-07
2	0	0	1	1	359.544	-0.165153	-0.165333	-0.0020488	2	-3.02652e-05	3.38735e-07
2	0	0	0	1	359.578	-0.168496	-0.16868	-0.00216304	2	-3.03373e-05	3.64862e-07
2	0	0	0	1	359.611	-0.171817	-0.172007	-0.00227917	2	-3.04127e-05	3.92033e-07
2	0	0	1	1	359.644	-0.175156	-0.175333	-0.00240477	2	-3.04927e-05	4.21636e-07
2	0	0	0	1	359.678	-0.178494	-0.178676	-0.00254026	2	-3.0577e-05	4.53884e-07
2	0	0	0	1	359.711	-0.181813	-0.182005	-0.00268194	2	-3.06654e-05	4.88125e-07
2	0	0	1	1	359.744	-0.185154	-0.185357	-0.00282656	2	-3.07591e-05	5.23923e-07
2	0	0	1	1	359.777	-0.188477	-0.188663	-0.00297455	2	-3.08572e-05	5.61187e-07
2	0	0	0	1	359.811	-0.191816	-0.191991	-0.00312372	2	-3.09608e-05	5.99726e-07
2	0	0	1	1	359.844	-0.195155	-0.195326	-0.00326802	2	-3.10692e-05	6.38328e-07
2	0	0	1	1	359.877	-0.198473	-0.198644	-0.00341109	2	-3.11818e-05	6.77593e-07
2	0	0	0	1	359.911	-0.201812	-0.201967	-0.00354651	2	-3.12997e-05	7.16278e-07
2	0	0	0	1	359.944	-0.205138	-0.205325	-0.00367316	2	-3.14213e-05	7.54191e-07
2	0	0	1	1	359.977	-0.208476	-0.20865	-0.00378074	2	-3.15475e-05	7.8885e-07
2	0	0	0	1	360.011	-0.211815	-0.212	-0.00388377	2	-3.16772e-05	8.2336e-07
2	0	0	0	1	360.044	-0.215134	-0.215328	-0.00395906	2	-3.18091e-05	8.52496e-07
2	0	0	1	1	360.077	-0.218472	-0.218661	-0.00401678	2	-3.1944e-05	8.78314e-07
2	0	0	0	1	360.111	-0.221807	-0.222007	-0.00406133	2	-3.20801e-05	9.01642e-07
2	0	0	0	1	360.144	-0.225137	-0.225347	-0.00408966	2	-3.22174e-05	9.21593e-07
2	0	0	1	1	360.177	-0.228475	-0.228676	-0.00409735	2	-3.23558e-05	9.36964e-07
2	0	0	1	1	360.211	-0.231794	-0.231986	-0.00409298	2	-3.24934e-05	9.49512e-07
2	0	0	0	1	360.244	-0.235133	-0.235322	-0.0040777	2	-3.26314e-05	9.59571e-07
2	0	0	1	1	360.277	-0.238465	-0.238637	-0.0040574	2	-3.27685e-05	9.68244e-07
2	0	0	1	1	360.311	-0.241797	-0.241972	-0.00402314	2	-3.29046e-05	9.73485e-07
2	0	0	0	1	360.344	-0.245136	-0.245303	-0.003993	2	-3.30401e-05	9.79496e-07
2	0	0	0	1	360.377	-0.248454	-0.248647	-0.00395093	2	-3.31735e-05	9.82387e-07
2	0	0	1	1	360.411	-0.251793	-0.251987	-0.00391147	2	-3.33064e-05	9.85639e-07
2	0	0	0	1	360.444	-0.255123	-0.255305	-0.0038706	2	-3.34376e-05	9.88182e-07
2	0	0	0	1	360.477	-0.258457	-0.258639	-0.00382954	2	-3.35673e-05	9.90466e-07
2	0	0	1	1	360.511	-0.261796	-0.26196	-0.00378767	2	-3.36961e-05	9.92219e-07
2	0	0	1	1	360.544	-0.265115	-0.2653	-0.00374743	2	-3.38227e-05	9.94193e-07
2	0	0	0	1	360.577	-0.268453	-0.268633	-0.00370785	2	-3.39489e-05	9.96051e-07
2	0	0	1	1	360.61	-0.271783	-0.271967	-0.00366926	2	-3.40733e-05	9.97918e-07
2	0	0	1	1	360.644	-0.275118	-0.275299	-0.00363373	2	-3.41965e-05	1.00036e-06
2	0	0	0	1	360.677	-0.278456	-0.278613	-0.00359933	2	-3.43189e-05	1.00282e-06
2	0	0	0	1	360.71	-0.281775	-0.281937	-0.0035666	2	-3.44395e-05	1.00556e-06
2	0	0	1	1	360.744	-0.285114	-0.285284	-0.00353976	2	-3.45598e-05	1.00984e-06
2	0	0	0	1	360.777	-0.288453	-0.288623	-0.0035115	2	-3.46791e-05	1.0135e-06
2	0	0	0	1	360.81	-0.291778	-0.29195	-0.00348615	2	-3.47969e-05	1.01778e-06
2	0	0	1	1	360.844	-0.295117	-0.295277	-0.00345952	2	-3.49145e-05	1.02152e-06
2	0	0	1	1	360.877	-0.298435	-0.298632	-0.00344234	2	-3.50307e-05	1.02799e-06
2	0	0	0	1	360.91	-0.301774	-0.301965	-0.00341949	2	-3.51469e-05	1.03257e-06
2	0	0	1	1	360.944	-0.305113	-0.305295	-0.00340318	2	-3.52624e-05	1.03897e-06
2	0	0	1	1	360.977	-0.308436	-0.308633	-0.00338531	2	-3.53768e-05	1.04482e-06
2	0	0	0	1	361.01	-0.311777	-0.311968	-0.00337269	2	-3.54913e-05	1.05217e-06
2	0	0	0	1	361.044	-0.315096	-0.315295	-0.00335828	2	-3.56046e-05	1.05885e-06
2	0	0	1	1	361.077	-0.318434	-0.318621	-0.00334499	2	-3.57182e-05	1.06578e-06
2	0	0	0	1	361.11	-0.321773	-0.321963	-0.00333467	2	-3.58314e-05	1.07364e-06
2	0	0	0	1	361.144	-0.325094	-0.325269	-0.0033257	2	-3.59437e-05	1.08175e-06
2	0	0	1	1	361.177	-0.328437	-0.328622	-0.00331962	2	-3.60563e-05	1.0909e-06
2	0	0	1	1	361.21	-0.331756	-0.331958	-0.00331319	2	-3.61681e-05	1.09984e-06
2	0	0	0	1	361.244	-0.335095	-0.335301	-0.00330895	2	-3.62803e-05	1.1095e-06
2	0	0	1	1	361.277	-0.338433	-0.338633	-0.00330377	2	-3.63924e-05	1.11877e-06
2	0	0	1	1	361.31	-0.341752	-0.34199	-0.00330187	2	-3.65037e-05	1.12921e-06
2	0	0	0	1	361.344	-0.345098	-0.345328	-0.00329892	2	-3.66156e-05	1.13921e-06
2	0	0	0	1	361.377	-0.348416	-0.348636	-0.00329651	2	-3.67267e-05	1.14928e-06
2	0	0	1	1	361.41	-0.351755	-0.351985	-0.0032966	2	-3.68384e-05	1.16036e-06
2	0	0	0	1	361.444	-0.355094	-0.355327	-0.00329751	2	-3.69502e-05	1.17169e-06
2	0	0	0	1	361.477	-0.358412	-0.358631	-0.00329804	2	-3.70613e-05	1.18278e-06
2	0	0	1	1	361.51	-0.361756	-0.361963	-0.00329901	2	-3.71732e-05	1.19412e-06
2	0	0	1	1	361.543	-0.365077	-0.365286	-0.00330312	2	-3.72844e-05	1.20659e-06
2	0	0	0	1	361.577	-0.368415	-0.368624	-0.00330453	2	-3.73964e-05	1.21813e-06
2	0	0	1	1	361.61	-0.371754	-0.371958	-0.00330927	2	-3.75085e-05	1.23091e-06
2	0	0	1	1	361.643	-0.375073	-0.375288	-0.00331443	2	-3.76201e-05	1.24387e-06
2	0	0	0	1	361.677	-0.378416	-0.378619	-0.00331715	2	-3.77325e-05	1.25594e-06
2	0	0	0	1	361.71	-0.381737	-0.381955	-0.00332564	2	-3.78445e-05	1.27024e-06
2	0	0	1	1	361.743	-0.385076	-0.385324	-0.0033289	2	-3.79573e-05	1.2827e-06
2	0	0	0	1	361.777	-0.388414	-0.388645	-0.00333744	2	-3.80703e-05	1.29708e-06
2	0	0	0	1	361.81	-0.391733	-0.391957	-0.00334296	2	-3.81828e-05	1.31029e-06
2	0	0	1	1	361.843	-0.395074	-0.395302	-0.00335068	2	-3.82963e-05	1.32453e-06
2	0	0	1	1	361.877	-0.398397	-0.398635	-0.00335839	2	-3.84093e-05	1.33877e-06
2	0	0	0	1	361.91	-0.401736	-0.401974	-0.00336722	2	-3.85233e-05	1.35353e-06
2	0	0	1	1	361.943	-0.405075	-0.405312	-0.00337448	2	-3.86375e-05	1.36772e-06
2	0	0	1	1	361.977	-0.408393	-0.408608	-0.00338198	2	-3.87513e-05	1.38191e-06
2	0	0	0	1	362.01	-0.411732	-0.411948	-0.00339118	2	-3.88661e-05	1.39699e-06
2	0	0	0	1	362.043	-0.415058	-0.415264	-0.00340279	2	-3.89806e-05	1.41306e-06
2	0	0	1	1	362.077	-0.418396	-0.418635	-0.00341379	2	-3.90961e-05	1.42913e-06
2	0	0	0	1	362.11	-0.421735	-0.421966	-0.00342394	2	-3.92119e-05	1.44479e-06
2	0	0	0	1	362.143	-0.425054	-0.425276	-0.00343427	2	-3.93274e-05	1.46051e-06
2	0	0	1	1	362.177	-0.428392	-0.428602	-0.00344486	2	-3.94439e-05	1.47647e-06
2	0	0	0	1	362.21	-0.431727	-0.431936	-0.0034566	2	-3.95605e-05	1.49303e-06
2	0	0	0	1	362.243	-0.435057	-0.435254	-0.00346739	2	-3.96774e-05	1.50919e-06
2	0	0	1	1	362.277	-0.438395	-0.43861	-0.00348127	2	-3.97952e-05	1.52692e-06
2	0	0	1	1	362.31	-0.441714	-0.441936	-0.0034945	2	-3.99126e-05	1.54434e-06
2	0	0	0	1	362.343	-0.445053	-0.445268	-0.00350683	2	-4.00312e-05	1.56148e-06
2	0	0	1	1	362.376	-0.448385	-0.448581	-0.0035212	2	-4.01499e-05	1.57954e-06
2	0	0	1	1	362.41	-0.451717	-0.451916	-0.00353653	2	-4.0269e-05	1.59821e-06
2	0	0	0	1	362.443	-0.455056	-0.455253	-0.003551	2	-4.0389e-05	1.61661e-06
2	0	0	0	1	362.476	-0.458374	-0.458573	-0.00356654	2	-4.05088e-05	1.63552e-06
2	0	0	1	1	362.51	-0.461713	-0.461927	-0.00358279	2	-4.06299e-05	1.65499e-06
2	0	0	0	1	362.543	-0.465045	-0.465238	-0.00359935	2	-4.07511e-05	1.67455e-06
2	0	0	0	1	362.576	-0.468377	-0.468588	-0.00361653	2	-4.08729e-05	1.69466e-06
2	0	0	1	1	362.61	-0.471716	-0.471935	-0.00363497	2	-4.09957e-05	1.71547e-06
2	0	0	1	1	362.643	-0.475035	-0.475253	-0.00365034	2	-4.11183e-05	1.73483e-06
2	0	0	0	1	362.676	-0.478373	-0.478598	-0.00367195	2	-4.12423e-05	1.75739e-06
2	0	0	1	1	362.71	-0.481703	-0.481924	-0.00369152	2	-4.13666e-05	1.77903e-06
2	0	0	1	1	362.743	-0.485038	-0.485247	-0.00371044	2	-4.14915e-05	1.80048e-06
2	0	0	0	1	362.776	-0.488376	-0.48861	-0.00373124	2	-4.16174e-05	1.82312e-06
2	0	0	0	1	362.81	-0.491695	-0.491915	-0.00375388	2	-4.17433e-05	1.84659e-06
2	0	0	1	1	362.843	-0.495034	-0.495242	-0.00377598	2	-4.18708e-05	1.87002e-06
2	0	0	0	1	362.876	-0.498372	-0.498589	-0.00380108	2	-4.1999e-05	1.89518e-06
2	0	0	0	1	362.91	-0.501698	-0.501935	-0.00382451	2	-4.21272e-05	1.91965e-06
2	0	0	1	1	362.943	-0.505037	-0.505261	-0.00384923	2	-4.22571e-05	1.94487e-06
2	0	0	1	1	362.976	-0.508355	-0.50859	-0.00387636	2	-4.2387e-05	1.97148e-06
2	0	0	0	1	363.01	-0.511694	-0.511923	-0.00390099	2	-4.25186e-05	1.997e-06
2	0	0	1	1	363.043	-0.515033	-0.515263	-0.00393114	2	-4.2651e-05	2.02557e-06
2	0	0	1	1	363.076	-0.518356	-0.518562	-0.00395993	2	-4.27837e-05	2.05347e-06
2	0	0	0	1	363.11	-0.521697	-0.52192	-0.00398979	2	-4.29182e-05	2.08235e-06
2	0	0	0	1	363.143	-0.525016	-0.525232	-0.0040214	2	-4.30529e-05	2.11217e-06
2	0	0	1	1	363.176	-0.528354	-0.528576	-0.00405633	2	-4.31895e-05	2.14408e-06
2	0	0	0	1	363.21	-0.531693	-0.531917	-0.00408813	2	-4.33271e-05	2.17455e-06
2	0	0	0	1	363.243	-0.535014	-0.535218	-0.00412346	2	-4.34652e-05	2.20695e-06
2	0	0	1	1	363.276	-0.538357	-0.538551	-0.00415972	2	-4.36052e-05	2.24022e-06
2	0	0	1	1	363.309	-0.541676	-0.541883	-0.00419903	2	-4.37457e-05	2.27538e-06
2	0	0	0	1	363.343	-0.545015	-0.545228	-0.00423953	2	-4.38883e-05	2.31151e-06
2	0	0	1	1	363.376	-0.548353	-0.548566	-0.00427992	2	-4.40322e-05	2.34782e-06
2	0	0	1	1	363.409	-0.551672	-0.551882	-0.00432424	2	-4.41768e-05	2.38647e-06
2	0	0	0	1	363.443	-0.555018	-0.555263	-0.0043688	2	-4.43236e-05	2.42583e-06
2	0	0	0	1	363.476	-0.558336	-0.558566	-0.00441502	2	-4.44711e-05	2.46608e-06
2	0	0	1	1	363.509	-0.561675	-0.561892	-0.00446057	2	-4.4621e-05	2.50636e-06
2	0	0	0	1	363.543	-0.565014	-0.56524	-0.00451207	2	-4.47726e-05	2.5504e-06
2	0	0	0	1	363.576	-0.568332	-0.568562	-0.00456352	2	-4.49249e-05	2.59465e-06
2	0	0	1	1	363.609	-0.571678	-0.571915	-0.00461489	2	-4.50799e-05	2.63933e-06
2	0	0	1	1	363.643	-0.574997	-0.575204	-0.00466762	2	-4.52357e-05	2.68484e-06
2	0	0	0	1	363.676	-0.578335	-0.578562	-0.00472563	2	-4.53943e-05	2.73407e-06
2	0	0	1	1	363.709	-0.581674	-0.581869	-0.00478542	2	-4.55548e-05	2.78449e-06
2	0	0	1	1	363.743	-0.584993	-0.585215	-0.00484283	2	-4.57164e-05	2.8341e-06
2	0	0	0	1	363.776	-0.588336	-0.588575	-0.00490735	2	-4.5881e-05	2.88834e-06
2	0	0	0	1	363.809	-0.591657	-0.591872	-0.0049708	2	-4.60466e-05	2.94208e-06
2	0	0	1	1	363.843	-0.594996	-0.595222	-0.00503513	2	-4.62155e-05	2.99702e-06
2	0	0	0	1	363.874	-0.598165	-0.598384	-0.00509964	2	-4.63776e-05	3.05154e-06
2	0	0	0	1	363.891	-0.599827	-0.600085	-0.00512832	2	-4.64638e-05	3.07743e-06