File: TAP_Report/Data/MB_SHU/100 uM MB 10mM PB Second ITO_06_CV_C01_2.mpt
EC-Lab ASCII FILE
Nb header lines : 53

Cyclic Voltammetry

Run on channel : 1 (SN 0696)
User :
Electrode connection : standard
Ewe ctrl range : min = -10.00 V, max = 10.00 V
Ewe,I filtering : 50 kHz
Channel : Grounded
Acquisition started on : 05/17/2017 12:14:48
Saved on :
	File : 100 uM MB 10mM PB Second ITO_06_CV_C01.mpr
	Directory : \\userfs\st659\w2k\EC-Lab\Data\ITO Characterisation 17-5-17\
	Host : 144.32.136.43
Device : SP-300 (SN 0182)
Address : USB
EC-Lab for windows v10.44 (software)
Internet server v10.44 (firmware)
Command interpretor v10.44 (firmware)
Electrode material :
Initial state :
Electrolyte :
Comments :
Cable : standard
Electrode surface area : 0.001 cm²
Characteristic mass : 0.001 g
Equivalent Weight : 0.000 g/eq.
Density : 0.000 g/cm3
Ei (V)              0.000
vs.                 Eoc
dE/dt               1000.000
dE/dt unit          mV/s
E1 (V)              0.100
vs.                 Ref
Step percent        50
N                   10
E range min (V)     -10.000
E range max (V)     10.000
I Range             Auto
I Range min         Unset
I Range max         Unset
I Range init        Unset
Bandwidth           8
E2 (V)              -0.600
vs.                 Ref
nc cycles           2
Reverse Scan        1
Ef (V)              0.000
vs.                 Eoc

mode	ox/red	error	control changes	counter inc.	time/s	control/V	Ewe/V	<I>/mA	cycle number	(Q-Qo)/C	P/W
2	1	0	0	1	418.566	-0.60016	-0.60034	-0.0114342	2	-5.7253e-06	6.86442e-06
2	1	0	1	1	418.568	-0.598394	-0.598611	-0.00983301	2	-5.74209e-06	5.88614e-06
2	1	0	0	1	418.571	-0.594996	-0.595217	-0.00817561	2	-5.77229e-06	4.86626e-06
2	1	0	1	1	418.574	-0.591597	-0.591819	-0.007338	2	-5.7984e-06	4.34277e-06
2	1	0	1	1	418.578	-0.588398	-0.588623	-0.0068163	2	-5.82086e-06	4.01223e-06
2	1	0	0	1	418.581	-0.584999	-0.585216	-0.00639351	2	-5.84311e-06	3.74158e-06
2	1	0	1	1	418.584	-0.581601	-0.581804	-0.00604531	2	-5.86408e-06	3.51719e-06
2	1	0	1	1	418.588	-0.578402	-0.578605	-0.00577188	2	-5.88283e-06	3.33963e-06
2	1	0	0	1	418.591	-0.575003	-0.575218	-0.00551143	2	-5.90183e-06	3.17028e-06
2	1	0	1	1	418.594	-0.571605	-0.571808	-0.00527398	2	-5.92e-06	3.01571e-06
2	1	0	1	1	418.598	-0.568406	-0.568623	-0.00507263	2	-5.9364e-06	2.88441e-06
2	1	0	0	1	418.601	-0.565007	-0.565218	-0.00487706	2	-5.95315e-06	2.7566e-06
2	1	0	1	1	418.604	-0.561608	-0.561821	-0.00469297	2	-5.96927e-06	2.63661e-06
2	1	0	1	1	418.608	-0.55841	-0.558612	-0.0045346	2	-5.98389e-06	2.53309e-06
2	1	0	0	1	418.611	-0.555011	-0.555243	-0.00437972	2	-5.99888e-06	2.43181e-06
2	1	0	1	1	418.614	-0.551612	-0.551806	-0.00421967	2	-6.01335e-06	2.32844e-06
2	1	0	1	1	418.618	-0.548413	-0.54861	-0.00409829	2	-6.0265e-06	2.24836e-06
2	1	0	0	1	418.621	-0.545015	-0.54522	-0.00396624	2	-6.04004e-06	2.16248e-06
2	1	0	1	1	418.624	-0.541616	-0.541799	-0.00383646	2	-6.05316e-06	2.07859e-06
2	1	0	1	1	418.628	-0.538417	-0.538604	-0.00372673	2	-6.06512e-06	2.00723e-06
2	1	0	0	1	418.631	-0.535018	-0.535208	-0.00361834	2	-6.07744e-06	1.93656e-06
2	1	0	1	1	418.634	-0.53162	-0.531829	-0.0035127	2	-6.08941e-06	1.86816e-06
2	1	0	1	1	418.638	-0.528421	-0.528614	-0.003408	2	-6.10035e-06	1.80152e-06
2	1	0	0	1	418.641	-0.525022	-0.525226	-0.00331234	2	-6.11162e-06	1.73973e-06
2	1	0	1	1	418.644	-0.521624	-0.521838	-0.00321774	2	-6.12258e-06	1.67914e-06
2	1	0	1	1	418.648	-0.518425	-0.518637	-0.00312696	2	-6.13259e-06	1.62176e-06
2	1	0	0	1	418.651	-0.515026	-0.515236	-0.00304822	2	-6.14293e-06	1.57055e-06
2	1	0	1	1	418.654	-0.511627	-0.511852	-0.00295909	2	-6.153e-06	1.51462e-06
2	1	0	1	1	418.658	-0.508429	-0.508653	-0.00288331	2	-6.16221e-06	1.4666e-06
2	1	0	0	1	418.661	-0.50503	-0.505248	-0.00280115	2	-6.17171e-06	1.41528e-06
2	1	0	1	1	418.664	-0.501631	-0.501836	-0.00272368	2	-6.18097e-06	1.36684e-06
2	1	0	1	1	418.668	-0.498432	-0.498651	-0.00265298	2	-6.18944e-06	1.32291e-06
2	1	0	0	1	418.671	-0.495034	-0.495225	-0.00258088	2	-6.19817e-06	1.27812e-06
2	1	0	1	1	418.674	-0.491635	-0.491827	-0.00251345	2	-6.2067e-06	1.23618e-06
2	1	0	1	1	418.678	-0.488436	-0.488648	-0.00245297	2	-6.21451e-06	1.19864e-06
2	1	0	0	1	418.681	-0.485038	-0.485246	-0.00238252	2	-6.22257e-06	1.15611e-06
2	1	0	1	1	418.684	-0.481639	-0.481849	-0.00232509	2	-6.23044e-06	1.12034e-06
2	1	0	1	1	418.688	-0.47844	-0.478649	-0.00225861	2	-6.23763e-06	1.08108e-06
2	1	0	0	1	418.691	-0.475041	-0.475251	-0.00219243	2	-6.24504e-06	1.04195e-06
2	1	0	1	1	418.694	-0.471643	-0.471849	-0.0021385	2	-6.25226e-06	1.00905e-06
2	1	0	1	1	418.698	-0.468444	-0.46865	-0.00207885	2	-6.25886e-06	9.74251e-07
2	1	0	0	1	418.701	-0.465045	-0.465218	-0.00201247	2	-6.26566e-06	9.36237e-07
2	1	0	1	1	418.704	-0.461647	-0.461831	-0.00196022	2	-6.27227e-06	9.05288e-07
2	1	0	1	1	418.723	-0.443218	-0.443385	-0.0016526	2	-6.30574e-06	7.32741e-07
2	1	0	1	1	418.741	-0.424794	-0.424973	-0.00139044	2	-6.33828e-06	5.90897e-07
2	1	0	0	1	418.745	-0.421395	-0.421572	-0.00133782	2	-6.34285e-06	5.63987e-07
2	1	0	1	1	418.748	-0.417996	-0.418176	-0.00129298	2	-6.34726e-06	5.40692e-07
2	1	0	1	1	418.751	-0.414798	-0.414971	-0.00124327	2	-6.35127e-06	5.15923e-07
2	1	0	0	1	418.755	-0.411399	-0.411557	-0.00119203	2	-6.35534e-06	4.9059e-07
2	1	0	1	1	418.758	-0.408	-0.408188	-0.00115356	2	-6.35927e-06	4.70871e-07
2	1	0	1	1	418.761	-0.404801	-0.404964	-0.00110477	2	-6.36284e-06	4.47394e-07
2	1	0	0	1	418.765	-0.401403	-0.401621	-0.00106757	2	-6.36647e-06	4.28759e-07
2	1	0	1	1	418.768	-0.398004	-0.398203	-0.00101724	2	-6.36996e-06	4.05067e-07
2	1	0	1	1	418.771	-0.394805	-0.395004	-0.000975857	2	-6.3731e-06	3.85467e-07
2	1	0	0	1	418.775	-0.391407	-0.39159	-0.000924634	2	-6.37625e-06	3.62078e-07
2	1	0	1	1	418.778	-0.388008	-0.388209	-0.000884092	2	-6.37927e-06	3.43213e-07
2	1	0	1	1	418.781	-0.384809	-0.384997	-0.000840361	2	-6.38198e-06	3.23537e-07
2	1	0	0	1	418.785	-0.38141	-0.381612	-0.000788654	2	-6.38468e-06	3.0096e-07
2	1	0	1	1	418.788	-0.378012	-0.378174	-0.000743909	2	-6.38723e-06	2.81327e-07
2	1	0	1	1	418.791	-0.374813	-0.374998	-0.00070823	2	-6.3895e-06	2.65585e-07
2	1	0	0	1	418.795	-0.371414	-0.371583	-0.000660514	2	-6.39176e-06	2.45436e-07
2	1	0	1	1	418.798	-0.368015	-0.368165	-0.000612603	2	-6.39386e-06	2.25539e-07
2	1	0	1	1	418.801	-0.364817	-0.364992	-0.000578414	2	-6.39571e-06	2.11117e-07
2	1	0	0	1	418.805	-0.361418	-0.361583	-0.000533682	2	-6.39753e-06	1.9297e-07
2	1	0	1	1	418.808	-0.358019	-0.358188	-0.000485072	2	-6.39921e-06	1.73747e-07
2	1	0	1	1	418.811	-0.354821	-0.355019	-0.000445603	2	-6.40065e-06	1.58197e-07
2	1	0	0	1	418.815	-0.351422	-0.351611	-0.000399511	2	-6.40201e-06	1.40473e-07
2	1	0	1	1	418.818	-0.348023	-0.348194	-0.000346502	2	-6.40323e-06	1.2065e-07
2	1	0	1	1	418.821	-0.344824	-0.345007	-0.00030838	2	-6.40422e-06	1.06393e-07
2	1	0	0	1	418.825	-0.341426	-0.341593	-0.000262287	2	-6.40512e-06	8.95953e-08
2	1	0	1	1	418.828	-0.338027	-0.338189	-0.000202682	2	-6.40586e-06	6.85448e-08
2	1	0	1	1	418.831	-0.334828	-0.334983	-0.000162962	2	-6.4064e-06	5.45896e-08
2	1	0	0	1	418.835	-0.331429	-0.331595	-0.000120856	2	-6.40681e-06	4.00752e-08
2	1	0	1	1	418.838	-0.328031	-0.328162	-6.60587e-05	2	-6.40707e-06	2.16779e-08
2	1	0	1	1	418.841	-0.324832	-0.324964	-2.15098e-05	2	-6.40717e-06	6.9899e-09
2	1	0	0	1	418.845	-0.321433	-0.321588	2.23526e-05	2	-6.4071e-06	7.18831e-09
2	1	0	1	1	418.848	-0.318035	-0.318198	7.08787e-05	2	-6.40688e-06	2.25535e-08
2	1	0	1	1	418.851	-0.314836	-0.314983	0.000126552	2	-6.40652e-06	3.98617e-08
2	1	0	0	1	418.855	-0.311437	-0.311612	0.000176727	2	-6.40593e-06	5.50703e-08
2	1	0	1	1	418.858	-0.308038	-0.308202	0.000235411	2	-6.40517e-06	7.25542e-08
2	1	0	1	1	418.861	-0.30484	-0.304978	0.000294933	2	-6.40427e-06	8.99482e-08
2	1	0	0	1	418.865	-0.301441	-0.301601	0.000346881	2	-6.4031e-06	1.0462e-07
2	1	0	1	1	418.868	-0.298042	-0.298193	0.000412067	2	-6.40176e-06	1.22875e-07
2	1	0	1	1	418.871	-0.294843	-0.294963	0.000481748	2	-6.40027e-06	1.42098e-07
2	1	0	0	1	418.875	-0.291445	-0.291576	0.000538386	2	-6.39846e-06	1.56981e-07
2	1	0	1	1	418.878	-0.288046	-0.288174	0.000605528	2	-6.39646e-06	1.74497e-07
2	1	0	1	1	418.881	-0.284847	-0.284968	0.000680636	2	-6.39435e-06	1.93959e-07
2	1	0	0	1	418.885	-0.281448	-0.281553	0.000750856	2	-6.39184e-06	2.11406e-07
2	1	0	1	1	418.888	-0.27805	-0.278164	0.000830248	2	-6.38911e-06	2.30945e-07
2	1	0	1	1	418.891	-0.274851	-0.274976	0.000901303	2	-6.38628e-06	2.47837e-07
2	1	0	0	1	418.895	-0.271386	-0.271524	0.00101942	2	-6.38295e-06	2.76796e-07
2	1	0	0	1	418.898	-0.268187	-0.268325	0.00108843	2	-6.37952e-06	2.92053e-07
2	1	0	1	1	418.901	-0.264788	-0.264931	0.00119019	2	-6.37557e-06	3.15318e-07
2	1	0	0	1	418.905	-0.261389	-0.261513	0.00129086	2	-6.37129e-06	3.37577e-07
2	1	0	0	1	418.908	-0.258191	-0.258321	0.00139116	2	-6.36695e-06	3.59367e-07
2	1	0	1	1	418.911	-0.254792	-0.254943	0.00149639	2	-6.36196e-06	3.81494e-07
2	1	0	0	1	418.915	-0.251393	-0.251541	0.00162782	2	-6.35659e-06	4.09463e-07
2	1	0	0	1	418.918	-0.248195	-0.248339	0.00175453	2	-6.35112e-06	4.3572e-07
2	1	0	1	1	418.921	-0.244796	-0.244955	0.00189075	2	-6.34483e-06	4.63148e-07
2	1	0	0	1	418.925	-0.241397	-0.241545	0.00204806	2	-6.33806e-06	4.947e-07
2	1	0	0	1	418.928	-0.238198	-0.238336	0.00219118	2	-6.33122e-06	5.22236e-07
2	1	0	1	1	418.931	-0.2348	-0.234954	0.00235583	2	-6.32342e-06	5.53513e-07
2	1	0	0	1	418.935	-0.231401	-0.23157	0.00253175	2	-6.31504e-06	5.86277e-07
2	1	0	0	1	418.938	-0.228202	-0.228366	0.00271141	2	-6.30659e-06	6.19193e-07
2	1	0	1	1	418.941	-0.224803	-0.224966	0.00291232	2	-6.29695e-06	6.55171e-07
2	1	0	0	1	418.945	-0.221405	-0.221557	0.00312881	2	-6.28661e-06	6.93211e-07
2	1	0	0	1	418.948	-0.218206	-0.218359	0.00332528	2	-6.27622e-06	7.26103e-07
2	1	0	1	1	418.951	-0.214807	-0.214962	0.00355597	2	-6.26443e-06	7.64398e-07
2	1	0	0	1	418.955	-0.211409	-0.211541	0.00380216	2	-6.25184e-06	8.04312e-07
2	1	0	0	1	418.958	-0.20821	-0.208334	0.00404713	2	-6.23922e-06	8.43154e-07
2	1	0	1	1	418.961	-0.204811	-0.204946	0.00427562	2	-6.22498e-06	8.7627e-07
2	1	0	0	1	418.965	-0.201412	-0.201533	0.00454838	2	-6.2099e-06	9.1665e-07
2	1	0	0	1	418.968	-0.198214	-0.198342	0.0048027	2	-6.19488e-06	9.52578e-07
2	1	0	1	1	418.971	-0.194815	-0.194955	0.00507108	2	-6.178e-06	9.88629e-07
2	1	0	0	1	418.975	-0.191416	-0.191542	0.00536887	2	-6.16018e-06	1.02836e-06
2	1	0	0	1	418.978	-0.188217	-0.188355	0.00564149	2	-6.14249e-06	1.0626e-06
2	1	0	1	1	418.981	-0.184819	-0.184967	0.00592446	2	-6.12274e-06	1.09583e-06
2	1	0	0	1	418.985	-0.18142	-0.181561	0.00622068	2	-6.10202e-06	1.12943e-06
2	1	0	0	1	418.988	-0.178221	-0.178378	0.00652369	2	-6.08155e-06	1.16369e-06
2	1	0	1	1	418.991	-0.174822	-0.174963	0.00678515	2	-6.05883e-06	1.18715e-06
2	1	0	0	1	418.995	-0.171424	-0.171565	0.0070778	2	-6.03518e-06	1.2143e-06
2	1	0	0	1	418.998	-0.168225	-0.168372	0.00736675	2	-6.012e-06	1.24035e-06
2	1	0	1	1	419.001	-0.164826	-0.164953	0.00763521	2	-5.9864e-06	1.25945e-06
2	1	0	0	1	419.005	-0.161428	-0.161549	0.0078991	2	-5.95991e-06	1.27609e-06
2	1	0	0	1	419.008	-0.158229	-0.15833	0.0081672	2	-5.93413e-06	1.29311e-06
2	1	0	1	1	419.011	-0.15483	-0.154939	0.00842859	2	-5.90582e-06	1.30591e-06
2	1	0	0	1	419.015	-0.151431	-0.151539	0.00865705	2	-5.87669e-06	1.31188e-06
2	1	0	0	1	419.018	-0.148233	-0.148358	0.0088653	2	-5.84859e-06	1.31524e-06
2	1	0	1	1	419.021	-0.144834	-0.144948	0.00908475	2	-5.81799e-06	1.31682e-06
2	1	0	0	1	419.025	-0.141435	-0.141549	0.00923324	2	-5.78678e-06	1.30695e-06
2	1	0	0	1	419.028	-0.138236	-0.138355	0.00939763	2	-5.75692e-06	1.30021e-06
2	1	0	1	1	419.031	-0.134838	-0.134961	0.00954246	2	-5.72464e-06	1.28786e-06
2	1	0	0	1	419.035	-0.131439	-0.131554	0.00964023	2	-5.69196e-06	1.26821e-06
2	1	0	0	1	419.053	-0.113242	-0.113363	0.00956202	2	-5.51599e-06	1.08398e-06
2	1	0	1	1	419.071	-0.0947863	-0.0949335	0.00929452	2	-5.33871e-06	8.82361e-07
2	1	0	1	1	419.074	-0.0915875	-0.0917328	0.00917575	2	-5.30904e-06	8.41717e-07
2	1	0	0	1	419.078	-0.0881888	-0.0883434	0.00901692	2	-5.27798e-06	7.96585e-07
2	1	0	1	1	419.081	-0.0847901	-0.0849576	0.00885152	2	-5.24749e-06	7.52004e-07
2	1	0	1	1	419.084	-0.0815914	-0.0817458	0.00870381	2	-5.21927e-06	7.115e-07
2	1	0	0	1	419.088	-0.0781926	-0.078361	0.00855548	2	-5.1898e-06	6.70416e-07
2	1	0	1	1	419.091	-0.0747939	-0.0749616	0.00839266	2	-5.16086e-06	6.29127e-07
2	1	0	1	1	419.094	-0.0715952	-0.0717499	0.00824179	2	-5.13413e-06	5.91348e-07
2	1	0	0	1	419.098	-0.0681965	-0.0683688	0.00808374	2	-5.10624e-06	5.52676e-07
2	1	0	1	1	419.101	-0.0647977	-0.0649461	0.00792745	2	-5.07891e-06	5.14858e-07
2	1	0	1	1	419.104	-0.061599	-0.0617758	0.00779321	2	-5.05363e-06	4.81432e-07
2	1	0	0	1	419.108	-0.0582003	-0.0583703	0.00765892	2	-5.02723e-06	4.47053e-07
2	1	0	1	1	419.111	-0.0548016	-0.0549724	0.00752003	2	-5.0013e-06	4.13394e-07
2	1	0	1	1	419.114	-0.0516028	-0.0517827	0.00738982	2	-4.97732e-06	3.82665e-07
2	1	0	0	1	419.118	-0.0482041	-0.0483688	0.00727291	2	-4.95225e-06	3.51782e-07
2	1	0	1	1	419.121	-0.0448054	-0.0449796	0.00714227	2	-4.92763e-06	3.21256e-07
2	1	0	1	1	419.124	-0.0416066	-0.0417789	0.00705457	2	-4.90479e-06	2.94733e-07
2	1	0	0	1	419.128	-0.0382079	-0.0383488	0.00693425	2	-4.88087e-06	2.6592e-07
2	1	0	1	1	419.131	-0.0348092	-0.0349396	0.00683706	2	-4.85734e-06	2.38884e-07
2	1	0	1	1	419.134	-0.0316104	-0.0317732	0.00675654	2	-4.83546e-06	2.14677e-07
2	1	0	0	1	419.138	-0.0282117	-0.0283521	0.00666769	2	-4.8125e-06	1.89043e-07
2	1	0	1	1	419.141	-0.024813	-0.0249516	0.00656398	2	-4.78988e-06	1.63782e-07
2	1	0	1	1	419.144	-0.0216142	-0.0217428	0.00649511	2	-4.76886e-06	1.41222e-07
2	1	0	0	1	419.148	-0.0182155	-0.01838	0.00639338	2	-4.74682e-06	1.1751e-07
2	1	0	1	1	419.151	-0.0148168	-0.0149802	0.00633057	2	-4.72506e-06	9.48335e-08
2	1	0	1	1	419.154	-0.011618	-0.0117652	0.00627472	2	-4.70476e-06	7.38237e-08
2	1	0	0	1	419.158	-0.00821932	-0.0083708	0.00620961	2	-4.68339e-06	5.19794e-08
2	1	0	1	1	419.161	-0.00482061	-0.00497661	0.00614015	2	-4.66227e-06	3.05572e-08
2	1	0	1	1	419.164	-0.00162183	-0.00178883	0.00607542	2	-4.6426e-06	1.08679e-08
2	1	0	0	1	419.168	0.00177687	0.00163079	0.00602838	2	-4.62187e-06	9.83104e-09
2	1	0	1	1	419.171	0.00517558	0.00504253	0.00597667	2	-4.60133e-06	3.01376e-08
2	1	0	1	1	419.174	0.00837436	0.00823909	0.00591876	2	-4.58217e-06	4.87652e-08
2	1	0	0	1	419.178	0.0117731	0.0116578	0.00586096	2	-4.562e-06	6.8326e-08
2	1	0	1	1	419.181	0.0151718	0.0150735	0.00581365	2	-4.54201e-06	8.76321e-08
2	1	0	1	1	419.184	0.0183705	0.0182628	0.00576498	2	-4.52335e-06	1.05285e-07
2	1	0	0	1	419.188	0.0217692	0.0216555	0.0057215	2	-4.50368e-06	1.23902e-07
2	1	0	1	1	419.191	0.0251679	0.0250474	0.00568616	2	-4.48416e-06	1.42423e-07
2	1	0	1	1	419.194	0.0283667	0.0282566	0.00564098	2	-4.46591e-06	1.59395e-07
2	1	0	0	1	419.198	0.0317654	0.0316422	0.00560395	2	-4.44664e-06	1.77321e-07
2	1	0	1	1	419.201	0.0351641	0.0350513	0.00557628	2	-4.4275e-06	1.95456e-07
2	1	0	1	1	419.204	0.0383629	0.0382323	0.00552895	2	-4.4096e-06	2.11384e-07
2	1	0	0	1	419.208	0.0417616	0.0416361	0.00551216	2	-4.39069e-06	2.29505e-07
2	1	0	1	1	419.211	0.0451603	0.0450405	0.0054783	2	-4.37188e-06	2.46745e-07
2	1	0	1	1	419.214	0.0483591	0.0482738	0.00544079	2	-4.35427e-06	2.62648e-07
2	1	0	0	1	419.218	0.0517578	0.0516717	0.00541713	2	-4.33567e-06	2.79912e-07
2	1	0	1	1	419.221	0.0551565	0.0550595	0.00538827	2	-4.31717e-06	2.96676e-07
2	1	0	1	1	419.224	0.0583553	0.0582822	0.00535678	2	-4.29984e-06	3.12205e-07
2	1	0	0	1	419.228	0.061754	0.0616776	0.00534357	2	-4.28151e-06	3.29579e-07
2	1	0	1	1	419.231	0.0651527	0.0650649	0.00531082	2	-4.26327e-06	3.45548e-07
2	1	0	1	1	419.234	0.0683515	0.0682289	0.00528973	2	-4.24617e-06	3.60913e-07
2	1	0	0	1	419.238	0.0717502	0.0716519	0.00527137	2	-4.22806e-06	3.77704e-07
2	1	0	1	1	419.241	0.0750584	0.0749476	0.00525652	2	-4.21056e-06	3.93964e-07
2	1	0	1	1	419.244	0.0784143	0.0783126	0.00524943	2	-4.19307e-06	4.11096e-07
2	1	0	0	1	419.248	0.081813	0.0817104	0.00520956	2	-4.17517e-06	4.25676e-07
2	1	0	0	1	419.251	0.0850118	0.0849028	0.00519923	2	-4.15839e-06	4.41429e-07
2	1	0	1	1	419.254	0.0884105	0.0882793	0.00517773	2	-4.14061e-06	4.57086e-07
2	1	0	0	1	419.258	0.0918092	0.0916857	0.00515543	2	-4.12291e-06	4.72679e-07
2	1	0	0	1	419.261	0.0950079	0.0948943	0.00515324	2	-4.10629e-06	4.89014e-07
2	1	0	1	1	419.264	0.0982016	0.098085	0.00513937	2	-4.08969e-06	5.04095e-07
2	1	0	0	1	419.266	0.0999061	0.0997955	0.00514294	2	-4.08088e-06	5.13243e-07
2	0	0	1	1	419.266	0.100239	0.100124	0.00510061	2	-4.07881e-06	5.10692e-07
2	0	0	1	1	419.268	0.09834	0.0982293	0.00363357	2	-4.07163e-06	3.56923e-07
2	0	0	1	1	419.271	0.0951412	0.0950186	0.00266608	2	-4.06183e-06	2.53328e-07
2	0	0	0	1	419.275	0.0917425	0.091624	0.00225192	2	-4.05368e-06	2.0633e-07
2	0	0	1	1	419.278	0.0883438	0.0882069	0.00198159	2	-4.04665e-06	1.7479e-07
2	0	0	1	1	419.281	0.085145	0.0850156	0.00178453	2	-4.04078e-06	1.51713e-07
2	0	0	0	1	419.285	0.0817463	0.0816274	0.00161125	2	-4.03517e-06	1.31522e-07
2	0	0	1	1	419.288	0.0783476	0.0782486	0.00145669	2	-4.03011e-06	1.13984e-07
2	0	0	1	1	419.291	0.0750822	0.0749568	0.00129213	2	-4.02585e-06	9.68539e-08
2	0	0	0	1	419.295	0.0716835	0.0715618	0.00118446	2	-4.02178e-06	8.47622e-08
2	0	0	0	1	419.298	0.0684847	0.0683718	0.00107782	2	-4.0183e-06	7.36926e-08
2	0	0	1	1	419.301	0.065086	0.0649858	0.000973814	2	-4.01498e-06	6.32841e-08
2	0	0	0	1	419.305	0.0616873	0.0615808	0.000860844	2	-4.01199e-06	5.30115e-08
2	0	0	0	1	419.308	0.0584886	0.0584065	0.000776999	2	-4.00951e-06	4.53818e-08
2	0	0	1	1	419.311	0.0550899	0.0549864	0.000677479	2	-4.0072e-06	3.72522e-08
2	0	0	0	1	419.315	0.0516912	0.051596	0.000587545	2	-4.00518e-06	3.0315e-08
2	0	0	0	1	419.318	0.0484924	0.0484006	0.000515359	2	-4.00355e-06	2.49437e-08
2	0	0	1	1	419.321	0.0450937	0.0449824	0.000424255	2	-4.00211e-06	1.9084e-08
2	0	0	0	1	419.325	0.041695	0.0415572	0.000349565	2	-4.00094e-06	1.45269e-08
2	0	0	0	1	419.328	0.0384962	0.038375	0.000283392	2	-4.00007e-06	1.08752e-08
2	0	0	1	1	419.331	0.0350975	0.0349724	0.000203349	2	-3.9994e-06	7.11159e-09
2	0	0	0	1	419.335	0.0316988	0.0315736	0.000132675	2	-3.99897e-06	4.18904e-09
2	0	0	0	1	419.338	0.0285	0.0283661	6.92105e-05	2	-3.99879e-06	1.96323e-09
2	0	0	1	1	419.341	0.0251013	0.0249734	2.66895e-06	2	-3.99883e-06	6.66527e-11
2	0	0	0	1	419.345	0.0217026	0.0215761	-6.34022e-05	2	-3.99907e-06	1.36797e-09
2	0	0	0	1	419.348	0.0185038	0.0183741	-0.000125265	2	-3.9995e-06	2.30163e-09
2	0	0	1	1	419.351	0.0151051	0.0149841	-0.000187459	2	-4.00019e-06	2.8089e-09
2	0	0	0	1	419.355	0.0117064	0.0115669	-0.000254916	2	-4.00107e-06	2.94858e-09
2	0	0	0	1	419.358	0.00850764	0.0083622	-0.00030999	2	-4.00211e-06	2.5922e-09
2	0	0	1	1	419.361	0.00510893	0.00497271	-0.0003657	2	-4.00343e-06	1.81852e-09
2	0	0	0	1	419.365	0.00171023	0.00155843	-0.000434428	2	-4.00492e-06	6.77024e-10
2	0	0	0	1	419.383	-0.0165131	-0.016722	-0.000785051	2	-4.01495e-06	1.31277e-08
2	0	0	1	1	419.401	-0.0348758	-0.0350725	-0.00106844	2	-4.02621e-06	3.7473e-08
2	0	0	0	1	419.405	-0.0382745	-0.0384611	-0.00111875	2	-4.02998e-06	4.30285e-08
2	0	0	0	1	419.408	-0.0414733	-0.0416937	-0.0011784	2	-4.03371e-06	4.91318e-08
2	0	0	1	1	419.411	-0.044872	-0.0450816	-0.00122821	2	-4.03787e-06	5.53695e-08
2	0	0	0	1	419.415	-0.0482707	-0.0484803	-0.00128021	2	-4.0422e-06	6.20649e-08
2	0	0	0	1	419.418	-0.0514695	-0.0516791	-0.00133927	2	-4.04644e-06	6.92123e-08
2	0	0	1	1	419.421	-0.0548682	-0.0550867	-0.00139426	2	-4.05116e-06	7.68053e-08
2	0	0	0	1	419.425	-0.0582669	-0.0584777	-0.00144665	2	-4.05604e-06	8.4597e-08
2	0	0	0	1	419.428	-0.0614657	-0.0616856	-0.00150505	2	-4.06082e-06	9.28396e-08
2	0	0	1	1	419.431	-0.0648644	-0.0650663	-0.00155948	2	-4.0661e-06	1.0147e-07
2	0	0	0	1	419.435	-0.0682631	-0.0684707	-0.00162346	2	-4.07157e-06	1.11159e-07
2	0	0	0	1	419.438	-0.0714619	-0.0716568	-0.00167917	2	-4.0769e-06	1.20324e-07
2	0	0	1	1	419.441	-0.0748606	-0.0750613	-0.00174684	2	-4.0828e-06	1.3112e-07
2	0	0	0	1	419.445	-0.0782593	-0.0784711	-0.00181285	2	-4.08891e-06	1.42256e-07
2	0	0	0	1	419.448	-0.0814581	-0.0816588	-0.0018709	2	-4.09486e-06	1.52775e-07
2	0	0	1	1	419.451	-0.0848568	-0.0850522	-0.00194036	2	-4.10141e-06	1.65032e-07
2	0	0	0	1	419.455	-0.0882555	-0.0884448	-0.00202073	2	-4.1082e-06	1.78723e-07
2	0	0	0	1	419.458	-0.0914543	-0.0916447	-0.00208997	2	-4.11483e-06	1.91535e-07
2	0	0	1	1	419.461	-0.094853	-0.0950551	-0.00217887	2	-4.12216e-06	2.07113e-07
2	0	0	0	1	419.465	-0.098185	-0.0983704	-0.00227137	2	-4.12955e-06	2.23436e-07
2	0	0	0	1	419.468	-0.101517	-0.101708	-0.00235587	2	-4.13727e-06	2.39611e-07
2	0	0	1	1	419.471	-0.104916	-0.105101	-0.0024426	2	-4.14548e-06	2.56719e-07
2	0	0	1	1	419.475	-0.108115	-0.108291	-0.00252557	2	-4.15348e-06	2.73498e-07
2	0	0	0	1	419.478	-0.111513	-0.111666	-0.00263657	2	-4.16234e-06	2.94415e-07
2	0	0	1	1	419.481	-0.114912	-0.11509	-0.00275475	2	-4.17157e-06	3.17044e-07
2	0	0	1	1	419.485	-0.118111	-0.118293	-0.00286478	2	-4.18061e-06	3.38883e-07
2	0	0	0	1	419.488	-0.121509	-0.121673	-0.0029908	2	-4.19064e-06	3.63901e-07
2	0	0	1	1	419.491	-0.124908	-0.125087	-0.00312867	2	-4.20111e-06	3.91356e-07
2	0	0	1	1	419.495	-0.128107	-0.128303	-0.00327339	2	-4.21141e-06	4.19986e-07
2	0	0	0	1	419.498	-0.131506	-0.131714	-0.00342049	2	-4.22287e-06	4.50527e-07
2	0	0	1	1	419.501	-0.134904	-0.135105	-0.00357237	2	-4.23482e-06	4.82644e-07
2	0	0	1	1	419.505	-0.138103	-0.138293	-0.00373679	2	-4.24658e-06	5.16773e-07
2	0	0	0	1	419.508	-0.141502	-0.141702	-0.00391718	2	-4.25968e-06	5.55071e-07
2	0	0	1	1	419.511	-0.144901	-0.145112	-0.00410613	2	-4.27339e-06	5.95848e-07
2	0	0	1	1	419.515	-0.148099	-0.148295	-0.0042885	2	-4.28689e-06	6.35965e-07
2	0	0	0	1	419.518	-0.151498	-0.151702	-0.00451064	2	-4.30193e-06	6.84273e-07
2	0	0	1	1	419.521	-0.154897	-0.155073	-0.00471782	2	-4.3177e-06	7.31605e-07
2	0	0	1	1	419.525	-0.158096	-0.158299	-0.00494046	2	-4.33322e-06	7.8207e-07
2	0	0	0	1	419.528	-0.161494	-0.161707	-0.00517043	2	-4.35049e-06	8.36094e-07
2	0	0	1	1	419.531	-0.164893	-0.165109	-0.00541403	2	-4.36855e-06	8.93905e-07
2	0	0	1	1	419.535	-0.168092	-0.168314	-0.00564779	2	-4.38632e-06	9.50603e-07
2	0	0	0	1	419.538	-0.17149	-0.171704	-0.00590828	2	-4.40606e-06	1.01447e-06
2	0	0	1	1	419.541	-0.174889	-0.175101	-0.00615716	2	-4.42665e-06	1.07812e-06
2	0	0	1	1	419.545	-0.178088	-0.178283	-0.00643094	2	-4.44687e-06	1.14653e-06
2	0	0	0	1	419.548	-0.181487	-0.1817	-0.00671516	2	-4.46932e-06	1.22015e-06
2	0	0	1	1	419.551	-0.184885	-0.185111	-0.00699506	2	-4.4927e-06	1.29486e-06
2	0	0	1	1	419.555	-0.188084	-0.188302	-0.00724286	2	-4.51555e-06	1.36385e-06
2	0	0	0	1	419.558	-0.191483	-0.191699	-0.00752494	2	-4.54075e-06	1.44253e-06
2	0	0	1	1	419.561	-0.194882	-0.195074	-0.00780381	2	-4.56688e-06	1.52232e-06
2	0	0	1	1	419.565	-0.19808	-0.198271	-0.00807499	2	-4.59236e-06	1.60104e-06
2	0	0	0	1	419.568	-0.201479	-0.201688	-0.00838367	2	-4.62044e-06	1.69089e-06
2	0	0	1	1	419.571	-0.204878	-0.205095	-0.00867545	2	-4.64952e-06	1.77929e-06
2	0	0	1	1	419.575	-0.208076	-0.208278	-0.00893327	2	-4.67778e-06	1.8606e-06
2	0	0	0	1	419.578	-0.211475	-0.211688	-0.00920898	2	-4.70872e-06	1.94943e-06
2	0	0	1	1	419.581	-0.214874	-0.215092	-0.00947235	2	-4.74055e-06	2.03743e-06
2	0	0	1	1	419.585	-0.218073	-0.218304	-0.00972302	2	-4.77134e-06	2.12257e-06
2	0	0	0	1	419.588	-0.221471	-0.221699	-0.00998726	2	-4.80494e-06	2.21416e-06
2	0	0	1	1	419.606	-0.239895	-0.240078	-0.0109554	2	-4.99384e-06	2.63016e-06
2	0	0	1	1	419.625	-0.258057	-0.258214	-0.0118196	2	-5.18383e-06	3.05199e-06
2	0	0	0	1	419.628	-0.261456	-0.261609	-0.0118863	2	-5.22429e-06	3.10957e-06
2	0	0	1	1	419.631	-0.264855	-0.265005	-0.0119345	2	-5.26492e-06	3.16271e-06
2	0	0	1	1	419.635	-0.268054	-0.268212	-0.0119593	2	-5.30329e-06	3.20764e-06
2	0	0	0	1	419.638	-0.271452	-0.27161	-0.011966	2	-5.34412e-06	3.25007e-06
2	0	0	0	1	419.641	-0.274718	-0.274893	-0.0119827	2	-5.38258e-06	3.29397e-06
2	0	0	1	1	419.645	-0.278116	-0.278272	-0.0119623	2	-5.42344e-06	3.32878e-06
2	0	0	0	1	419.648	-0.281515	-0.281669	-0.0119333	2	-5.4642e-06	3.36126e-06
2	0	0	0	1	419.651	-0.284714	-0.284867	-0.011891	2	-5.50244e-06	3.38736e-06
2	0	0	1	1	419.655	-0.288113	-0.288261	-0.0118054	2	-5.54287e-06	3.40303e-06
2	0	0	0	1	419.658	-0.291511	-0.291669	-0.011722	2	-5.58298e-06	3.41895e-06
2	0	0	0	1	419.661	-0.29471	-0.294861	-0.0116519	2	-5.62049e-06	3.43568e-06
2	0	0	1	1	419.665	-0.298109	-0.298289	-0.0115792	2	-5.66013e-06	3.45394e-06
2	0	0	0	1	419.668	-0.301507	-0.301689	-0.0114561	2	-5.6994e-06	3.45618e-06
2	0	0	0	1	419.671	-0.304706	-0.304887	-0.0113606	2	-5.73602e-06	3.4637e-06
2	0	0	1	1	419.675	-0.308105	-0.308296	-0.0112427	2	-5.77459e-06	3.46608e-06
2	0	0	0	1	419.678	-0.311504	-0.311709	-0.0111279	2	-5.81274e-06	3.46866e-06
2	0	0	0	1	419.681	-0.314702	-0.314888	-0.0110237	2	-5.84832e-06	3.47123e-06
2	0	0	1	1	419.685	-0.318101	-0.318308	-0.0109175	2	-5.88575e-06	3.47512e-06
2	0	0	0	1	419.688	-0.3215	-0.321689	-0.0107992	2	-5.92278e-06	3.47398e-06
2	0	0	0	1	419.691	-0.324699	-0.324882	-0.0106789	2	-5.95726e-06	3.4694e-06
2	0	0	1	1	419.695	-0.328097	-0.328268	-0.0105673	2	-5.99352e-06	3.46892e-06
2	0	0	0	1	419.698	-0.331496	-0.331683	-0.0104602	2	-6.02939e-06	3.46948e-06
2	0	0	0	1	419.701	-0.334695	-0.334865	-0.0103411	2	-6.0628e-06	3.46287e-06
2	0	0	1	1	419.705	-0.338094	-0.338284	-0.0102717	2	-6.098e-06	3.47477e-06
2	0	0	0	1	419.708	-0.341492	-0.341702	-0.0101865	2	-6.1329e-06	3.48075e-06
2	0	0	0	1	419.711	-0.344691	-0.344908	-0.0100896	2	-6.16546e-06	3.47999e-06
2	0	0	1	1	419.715	-0.34809	-0.348289	-0.009983	2	-6.19972e-06	3.47697e-06
2	0	0	0	1	419.718	-0.351488	-0.351699	-0.00988522	2	-6.23362e-06	3.47662e-06
2	0	0	0	1	419.721	-0.354687	-0.354916	-0.00984005	2	-6.2653e-06	3.49239e-06
2	0	0	1	1	419.725	-0.358086	-0.358301	-0.00975069	2	-6.29873e-06	3.49368e-06
2	0	0	0	1	419.728	-0.361485	-0.361683	-0.00967175	2	-6.33188e-06	3.49811e-06
2	0	0	0	1	419.731	-0.364683	-0.364883	-0.00961622	2	-6.36287e-06	3.50879e-06
2	0	0	1	1	419.735	-0.368082	-0.368264	-0.00952293	2	-6.39553e-06	3.50695e-06
2	0	0	0	1	419.738	-0.371481	-0.371684	-0.00949343	2	-6.42798e-06	3.52856e-06
2	0	0	0	1	419.741	-0.37468	-0.37489	-0.0094204	2	-6.45838e-06	3.53161e-06
2	0	0	1	1	419.745	-0.378078	-0.378285	-0.00936368	2	-6.49047e-06	3.54214e-06
2	0	0	0	1	419.748	-0.381477	-0.381685	-0.0093349	2	-6.52239e-06	3.56299e-06
2	0	0	0	1	419.751	-0.384676	-0.384892	-0.00929928	2	-6.55234e-06	3.57921e-06
2	0	0	1	1	419.755	-0.388075	-0.3883	-0.00926036	2	-6.58404e-06	3.5958e-06
2	0	0	0	1	419.758	-0.391473	-0.391691	-0.00920056	2	-6.61555e-06	3.60378e-06
2	0	0	0	1	419.761	-0.394672	-0.394907	-0.00916801	2	-6.64507e-06	3.62051e-06
2	0	0	1	1	419.765	-0.398071	-0.398296	-0.00914458	2	-6.67634e-06	3.64225e-06
2	0	0	0	1	419.768	-0.401469	-0.401693	-0.00909787	2	-6.70749e-06	3.65455e-06
2	0	0	0	1	419.771	-0.404668	-0.40486	-0.00907923	2	-6.73671e-06	3.67582e-06
2	0	0	1	1	419.775	-0.408067	-0.408273	-0.00905968	2	-6.76769e-06	3.69882e-06
2	0	0	0	1	419.778	-0.411466	-0.411659	-0.00902146	2	-6.79854e-06	3.71377e-06
2	0	0	0	1	419.781	-0.414664	-0.414873	-0.0090206	2	-6.82754e-06	3.7424e-06
2	0	0	1	1	419.785	-0.418063	-0.418295	-0.00899909	2	-6.85831e-06	3.76427e-06
2	0	0	0	1	419.788	-0.421462	-0.421684	-0.00897174	2	-6.88899e-06	3.78324e-06
2	0	0	0	1	419.791	-0.424661	-0.424878	-0.00895488	2	-6.9178e-06	3.80473e-06
2	0	0	1	1	419.795	-0.428059	-0.428244	-0.00894199	2	-6.94837e-06	3.82935e-06
2	0	0	0	1	419.798	-0.431458	-0.431665	-0.00894014	2	-6.97891e-06	3.85915e-06
2	0	0	0	1	419.801	-0.434657	-0.434867	-0.00892703	2	-7.00762e-06	3.88207e-06
2	0	0	1	1	419.805	-0.438055	-0.438241	-0.00891769	2	-7.0381e-06	3.9081e-06
2	0	0	0	1	419.808	-0.441454	-0.441651	-0.00889465	2	-7.06852e-06	3.92833e-06
2	0	0	0	1	419.811	-0.444653	-0.444851	-0.00889696	2	-7.09712e-06	3.95783e-06
2	0	0	1	1	419.815	-0.448074	-0.448254	-0.00890949	2	-7.12754e-06	3.99371e-06
2	0	0	1	1	419.818	-0.451317	-0.451505	-0.00890539	2	-7.15617e-06	4.02083e-06
2	0	0	0	1	419.821	-0.454716	-0.454896	-0.0088874	2	-7.18655e-06	4.04285e-06
2	0	0	1	1	419.825	-0.458114	-0.458324	-0.00890048	2	-7.21692e-06	4.07931e-06
2	0	0	1	1	419.828	-0.461313	-0.46151	-0.00890785	2	-7.24554e-06	4.11106e-06
2	0	0	0	1	419.831	-0.464712	-0.464905	-0.00889928	2	-7.27596e-06	4.13732e-06
2	0	0	1	1	419.835	-0.468111	-0.468329	-0.00891981	2	-7.30638e-06	4.1774e-06
2	0	0	1	1	419.838	-0.471309	-0.471532	-0.00893275	2	-7.33508e-06	4.21208e-06
2	0	0	0	1	419.841	-0.474708	-0.474907	-0.00892128	2	-7.36558e-06	4.23678e-06
2	0	0	1	1	419.845	-0.478107	-0.478326	-0.00894085	2	-7.39609e-06	4.27664e-06
2	0	0	1	1	419.848	-0.481306	-0.48151	-0.00893219	2	-7.42482e-06	4.30094e-06
2	0	0	0	1	419.851	-0.484704	-0.484919	-0.00894318	2	-7.45537e-06	4.33672e-06
2	0	0	1	1	419.855	-0.488103	-0.488319	-0.00896859	2	-7.48595e-06	4.37953e-06
2	0	0	1	1	419.858	-0.491302	-0.491492	-0.0089737	2	-7.51479e-06	4.4105e-06
2	0	0	0	1	419.861	-0.494701	-0.494895	-0.00898935	2	-7.54547e-06	4.44878e-06
2	0	0	1	1	419.865	-0.498099	-0.498309	-0.00901005	2	-7.57619e-06	4.48979e-06
2	0	0	1	1	419.868	-0.501298	-0.50152	-0.00903919	2	-7.6052e-06	4.53333e-06
2	0	0	0	1	419.871	-0.504697	-0.504888	-0.00906016	2	-7.63612e-06	4.57437e-06
2	0	0	1	1	419.875	-0.508095	-0.508321	-0.00907295	2	-7.66708e-06	4.61197e-06
2	0	0	1	1	419.878	-0.511294	-0.51152	-0.00908212	2	-7.69626e-06	4.64569e-06
2	0	0	0	1	419.881	-0.514693	-0.514903	-0.00910643	2	-7.72732e-06	4.68893e-06
2	0	0	1	1	419.885	-0.518092	-0.518305	-0.00913669	2	-7.75847e-06	4.73559e-06
2	0	0	1	1	419.888	-0.52129	-0.52149	-0.0091657	2	-7.78789e-06	4.77982e-06
2	0	0	0	1	419.891	-0.524689	-0.524904	-0.00920953	2	-7.81928e-06	4.83412e-06
2	0	0	1	1	419.895	-0.528088	-0.528296	-0.00922521	2	-7.85076e-06	4.87364e-06
2	0	0	1	1	419.898	-0.531287	-0.531486	-0.00926866	2	-7.88048e-06	4.92616e-06
2	0	0	0	1	419.901	-0.534685	-0.534865	-0.00928694	2	-7.91217e-06	4.96726e-06
2	0	0	1	1	419.905	-0.538084	-0.538266	-0.00932693	2	-7.94396e-06	5.02037e-06
2	0	0	1	1	419.908	-0.541283	-0.541471	-0.00935336	2	-7.97398e-06	5.06458e-06
2	0	0	0	1	419.911	-0.544681	-0.54488	-0.00940138	2	-8.00601e-06	5.12262e-06
2	0	0	1	1	419.915	-0.54808	-0.548285	-0.00945256	2	-8.0382e-06	5.1827e-06
2	0	0	1	1	419.918	-0.551279	-0.551472	-0.00950186	2	-8.06866e-06	5.24001e-06
2	0	0	0	1	419.921	-0.554678	-0.554909	-0.00955218	2	-8.10123e-06	5.30059e-06
2	0	0	1	1	419.925	-0.558076	-0.558305	-0.00959672	2	-8.13392e-06	5.3579e-06
2	0	0	1	1	419.928	-0.561275	-0.561482	-0.00964897	2	-8.16484e-06	5.41772e-06
2	0	0	0	1	419.931	-0.564674	-0.564893	-0.0097022	2	-8.19789e-06	5.48071e-06
2	0	0	1	1	419.935	-0.568073	-0.568307	-0.00977088	2	-8.23114e-06	5.55286e-06
2	0	0	1	1	419.938	-0.571271	-0.571486	-0.00982303	2	-8.26263e-06	5.61372e-06
2	0	0	0	1	419.941	-0.57467	-0.574888	-0.00988102	2	-8.29629e-06	5.68048e-06
2	0	0	1	1	419.945	-0.578069	-0.578281	-0.00995851	2	-8.33014e-06	5.75881e-06
2	0	0	1	1	419.948	-0.581268	-0.581458	-0.0100231	2	-8.36225e-06	5.82802e-06
2	0	0	0	1	419.951	-0.584666	-0.584871	-0.0101118	2	-8.39664e-06	5.91411e-06
2	0	0	1	1	419.955	-0.588065	-0.588293	-0.0101725	2	-8.43126e-06	5.98443e-06
2	0	0	1	1	419.958	-0.591264	-0.591459	-0.0102606	2	-8.46409e-06	6.06875e-06
2	0	0	0	1	419.961	-0.594662	-0.594866	-0.0103227	2	-8.49924e-06	6.14065e-06
2	0	0	1	1	419.965	-0.598061	-0.598253	-0.0104143	2	-8.53461e-06	6.23039e-06
2	0	0	1	1	419.966	-0.599827	-0.600005	-0.0104899	2	-8.5524e-06	6.29397e-06