File: TAP_Report/Data/MB_Suscept/6_bw_anti_1_C01_2.mpt
EC-Lab ASCII FILE
Nb header lines : 56

Cyclic Voltammetry

Run on channel : 1 (SN 0696)
User :
Electrode connection : standard
Ewe ctrl range : min = -2.50 V, max = 2.50 V
Ewe,I filtering : 50 kHz
Safety Limits :
	Do not start on E overload
Channel : Floating
Acquisition started on : 09/12/2016 16:05:34
Saved on :
	File : 6_bw_anti_1_C01.mpr
	Directory : \\userfs\st659\w2k\EC-Lab\Data\Meth_Blue 12-09-16\
	Host : 144.32.136.43
Device : SP-300 (SN 0182)
Address : USB
EC-Lab for windows v10.44 (software)
Internet server v10.44 (firmware)
Command interpretor v10.44 (firmware)
Electrode material :
Initial state :
Electrolyte :
Comments :
Cable : standard
Reference electrode : SCE Saturated Calomel Electrode (0.241 V)
Electrode surface area : 0.001 cm²
Characteristic mass : 0.001 g
Equivalent Weight : 0.000 g/eq.
Density : 0.000 g/cm3
Ei (V)              0.000
vs.                 Eoc
dE/dt               100.000
dE/dt unit          mV/s
E1 (V)              0.100
vs.                 Ref
Step percent        50
N                   10
E range min (V)     -2.500
E range max (V)     2.500
I Range             Auto
I Range min         Unset
I Range max         Unset
I Range init        Unset
Bandwidth           8
E2 (V)              -0.400
vs.                 Ref
nc cycles           2
Reverse Scan        1
Ef (V)              0.000
vs.                 Eoc

mode	ox/red	error	control changes	counter inc.	time/s	control/V	Ewe/V	<I>/mA	cycle number	(Q-Qo)/C	P/W
2	1	0	0	1	9.9648	0.0243352	0.0247898	0.00490023	2	-5.19991e-05	1.21476e-07
2	1	0	1	1	9.9803	0.0258846	0.0263323	0.00488793	2	-5.19234e-05	1.2871e-07
2	1	0	1	1	10.0003	0.0278838	0.0283167	0.00489289	2	-5.18256e-05	1.3855e-07
2	1	0	1	1	10.0203	0.029883	0.0303257	0.00490902	2	-5.17276e-05	1.4887e-07
2	1	0	1	1	10.0403	0.0318821	0.0323214	0.00490503	2	-5.16292e-05	1.58537e-07
2	1	0	1	1	10.0603	0.0338813	0.034319	0.00492626	2	-5.15307e-05	1.69064e-07
2	1	0	1	1	10.0803	0.0358805	0.0363208	0.00492794	2	-5.14319e-05	1.78987e-07
2	1	0	1	1	10.1003	0.0378797	0.0383118	0.00494467	2	-5.1333e-05	1.89439e-07
2	1	0	1	1	10.1203	0.0398788	0.0403145	0.00496708	2	-5.12338e-05	2.00245e-07
2	1	0	1	1	10.1403	0.041878	0.042315	0.00495614	2	-5.11343e-05	2.09719e-07
2	1	0	1	1	10.1603	0.0438772	0.0443241	0.00499177	2	-5.10346e-05	2.21256e-07
2	1	0	1	1	10.1803	0.0458764	0.0463106	0.00498142	2	-5.09347e-05	2.30693e-07
2	1	0	1	1	10.2003	0.0478756	0.0483023	0.00500033	2	-5.08345e-05	2.41527e-07
2	1	0	1	1	10.2203	0.0498747	0.0503153	0.00503102	2	-5.0734e-05	2.53137e-07
2	1	0	1	1	10.2403	0.0518739	0.0523089	0.00503222	2	-5.06332e-05	2.6323e-07
2	1	0	1	1	10.2603	0.0538731	0.0543198	0.00503755	2	-5.05323e-05	2.73639e-07
2	1	0	1	1	10.2803	0.0558723	0.0563047	0.00506761	2	-5.0431e-05	2.8533e-07
2	1	0	1	1	10.3003	0.0578715	0.0583171	0.00507779	2	-5.03293e-05	2.96122e-07
2	1	0	1	1	10.3203	0.0598706	0.0603036	0.00509306	2	-5.02275e-05	3.0713e-07
2	1	0	1	1	10.3403	0.0618698	0.0622881	0.00510571	2	-5.01254e-05	3.18025e-07
2	1	0	1	1	10.3603	0.063869	0.0642967	0.00511378	2	-5.00229e-05	3.28799e-07
2	1	0	1	1	10.3803	0.0658682	0.0663305	0.00514992	2	-4.992e-05	3.41597e-07
2	1	0	1	1	10.4003	0.0678674	0.0683069	0.00514138	2	-4.98168e-05	3.51192e-07
2	1	0	1	1	10.4203	0.0698665	0.0703094	0.0051667	2	-4.97133e-05	3.63267e-07
2	1	0	1	1	10.4403	0.0718657	0.0722953	0.00518497	2	-4.96096e-05	3.74848e-07
2	1	0	0	1	10.4601	0.0738649	0.0742827	0.00521609	2	-4.95063e-05	3.87465e-07
2	1	0	0	1	10.4801	0.0758641	0.0762881	0.00523397	2	-4.94016e-05	3.99289e-07
2	1	0	0	1	10.5001	0.0778632	0.0782865	0.00523946	2	-4.92967e-05	4.10179e-07
2	1	0	0	1	10.5201	0.0798624	0.0802886	0.00526056	2	-4.91914e-05	4.22363e-07
2	1	0	0	1	10.5401	0.0818616	0.0822832	0.00527684	2	-4.90857e-05	4.34195e-07
2	1	0	0	1	10.5601	0.0838608	0.084285	0.00530283	2	-4.89796e-05	4.46949e-07
2	1	0	0	1	10.5801	0.08586	0.0862883	0.00532466	2	-4.88731e-05	4.59455e-07
2	1	0	0	1	10.6001	0.0878592	0.0882916	0.00534125	2	-4.87662e-05	4.71587e-07
2	1	0	0	1	10.6201	0.0898583	0.0902839	0.00536019	2	-4.86589e-05	4.83939e-07
2	1	0	0	1	10.6401	0.0918575	0.0922806	0.00538349	2	-4.8551e-05	4.96792e-07
2	1	0	0	1	10.6601	0.0938567	0.094306	0.00541904	2	-4.84428e-05	5.11048e-07
2	1	0	0	1	10.6801	0.0958559	0.0962845	0.00544206	2	-4.8334e-05	5.23986e-07
2	1	0	0	1	10.7001	0.0978551	0.0982859	0.00546128	2	-4.82249e-05	5.36766e-07
2	1	0	0	1	10.7181	0.0996543	0.100072	0.00548535	2	-4.81263e-05	5.48928e-07
2	0	0	1	1	10.7275	0.0994544	0.099822	0.00290831	2	-4.80874e-05	2.90313e-07
2	0	0	1	1	10.7475	0.0974552	0.0977973	0.00201968	2	-4.80394e-05	1.9752e-07
2	0	0	1	1	10.7675	0.095456	0.0958101	0.00157338	2	-4.8004e-05	1.50746e-07
2	0	0	1	1	10.7875	0.0934568	0.0937869	0.0012242	2	-4.79766e-05	1.14814e-07
2	0	0	1	1	10.8075	0.0914577	0.0918064	0.000967151	2	-4.79549e-05	8.87907e-08
2	0	0	1	1	10.8275	0.0894585	0.0897974	0.000753605	2	-4.79381e-05	6.76718e-08
2	0	0	1	1	10.8475	0.0874593	0.0877786	0.000552284	2	-4.79253e-05	4.84787e-08
2	0	0	1	1	10.8675	0.0854601	0.0857753	0.000400774	2	-4.79161e-05	3.43765e-08
2	0	0	1	1	10.8875	0.083461	0.083793	0.000247423	2	-4.79098e-05	2.07324e-08
2	0	0	1	1	10.9075	0.0814618	0.0817747	0.000107231	2	-4.79065e-05	8.76876e-09
2	0	0	1	1	10.9275	0.0794626	0.0798133	-3.03215e-06	2	-4.79056e-05	2.42006e-10
2	0	0	1	1	10.9475	0.0774634	0.0777933	-0.000114119	2	-4.7907e-05	8.87773e-09
2	0	0	1	1	10.9675	0.0754642	0.0758061	-0.00021485	2	-4.79104e-05	1.62869e-08
2	0	0	1	1	10.9875	0.0734651	0.0737958	-0.000323404	2	-4.7916e-05	2.38659e-08
2	0	0	0	1	11.0073	0.0714659	0.0718007	-0.000386921	2	-4.79236e-05	2.77812e-08
2	0	0	0	1	11.0273	0.0694667	0.069818	-0.000490741	2	-4.79327e-05	3.42626e-08
2	0	0	0	1	11.0473	0.0674675	0.0678039	-0.000561539	2	-4.79435e-05	3.80746e-08
2	0	0	0	1	11.0673	0.0654683	0.0658014	-0.000643626	2	-4.79558e-05	4.23515e-08
2	0	0	0	1	11.0873	0.0634692	0.0638229	-0.000703628	2	-4.79695e-05	4.49076e-08
2	0	0	0	1	11.1073	0.06147	0.0617929	-0.000769379	2	-4.79846e-05	4.75422e-08
2	0	0	0	1	11.1273	0.0594708	0.0598009	-0.000840306	2	-4.80009e-05	5.0251e-08
2	0	0	0	1	11.1473	0.0574716	0.0578063	-0.000906009	2	-4.80184e-05	5.2373e-08
2	0	0	0	1	11.1673	0.0554725	0.0557923	-0.000952694	2	-4.80371e-05	5.3153e-08
2	0	0	0	1	11.1873	0.0534733	0.0538128	-0.00101589	2	-4.80569e-05	5.46678e-08
2	0	0	0	1	11.2073	0.0514741	0.0518063	-0.00106252	2	-4.80777e-05	5.50454e-08
2	0	0	0	1	11.2273	0.0494749	0.0498043	-0.00111342	2	-4.80996e-05	5.54532e-08
2	0	0	0	1	11.2473	0.0474757	0.0478073	-0.00115361	2	-4.81225e-05	5.51512e-08
2	0	0	0	1	11.2673	0.0454766	0.0458125	-0.00119636	2	-4.81462e-05	5.48082e-08
2	0	0	0	1	11.2873	0.0434774	0.0438249	-0.00125906	2	-4.81708e-05	5.51782e-08
2	0	0	0	1	11.3073	0.0414782	0.041821	-0.00128303	2	-4.81963e-05	5.36577e-08
2	0	0	0	1	11.3273	0.039479	0.039806	-0.00133932	2	-4.82227e-05	5.3313e-08
2	0	0	0	1	11.3473	0.0374798	0.0378071	-0.00137594	2	-4.825e-05	5.20203e-08
2	0	0	0	1	11.3673	0.0354807	0.0358049	-0.00141455	2	-4.8278e-05	5.06479e-08
2	0	0	0	1	11.3873	0.0334815	0.0337965	-0.00145329	2	-4.83066e-05	4.9116e-08
2	0	0	0	1	11.4073	0.0314823	0.0318051	-0.00147817	2	-4.83361e-05	4.70133e-08
2	0	0	0	1	11.4273	0.0294831	0.0297984	-0.00151383	2	-4.83663e-05	4.51095e-08
2	0	0	0	1	11.4473	0.0274839	0.0278118	-0.00156735	2	-4.83972e-05	4.35908e-08
2	0	0	0	1	11.4673	0.0254848	0.025818	-0.00157795	2	-4.84287e-05	4.07395e-08
2	0	0	1	1	11.4871	0.0234856	0.0238063	-0.00163379	2	-4.84608e-05	3.88945e-08
2	0	0	1	1	11.5071	0.0214864	0.021829	-0.0016524	2	-4.84937e-05	3.60703e-08
2	0	0	1	1	11.5271	0.0194872	0.0198226	-0.00167328	2	-4.85272e-05	3.31687e-08
2	0	0	1	1	11.5471	0.017488	0.0178203	-0.00171535	2	-4.85613e-05	3.05681e-08
2	0	0	1	1	11.5671	0.0154889	0.015814	-0.00174088	2	-4.85961e-05	2.75304e-08
2	0	0	1	1	11.5871	0.0134897	0.0138137	-0.00177361	2	-4.86314e-05	2.45001e-08
2	0	0	1	1	11.6071	0.0114905	0.0118191	-0.0018117	2	-4.86673e-05	2.14127e-08
2	0	0	1	1	11.6271	0.00949133	0.00980816	-0.00182197	2	-4.87039e-05	1.78701e-08
2	0	0	1	1	11.6471	0.00749215	0.00782033	-0.00185844	2	-4.87408e-05	1.45336e-08
2	0	0	1	1	11.6671	0.00549297	0.00581597	-0.00189051	2	-4.87784e-05	1.09952e-08
2	0	0	1	1	11.6871	0.00349379	0.0037991	-0.00192472	2	-4.88167e-05	7.31218e-09
2	0	0	1	1	11.7071	0.00149461	0.00181169	-0.00195037	2	-4.88555e-05	3.53347e-09
2	0	0	1	1	11.7271	-0.000504566	-0.00020327	-0.00196399	2	-4.88949e-05	3.9922e-10
2	0	0	1	1	11.7471	-0.00250375	-0.00218623	-0.00198919	2	-4.89348e-05	4.34882e-09
2	0	0	1	1	11.7671	-0.00450293	-0.00419207	-0.00202961	2	-4.89751e-05	8.50825e-09
2	0	0	1	1	11.7871	-0.00650211	-0.00619813	-0.00203632	2	-4.90158e-05	1.26214e-08
2	0	0	1	1	11.8071	-0.00850129	-0.00819211	-0.00207751	2	-4.90572e-05	1.70192e-08
2	0	0	1	1	11.8271	-0.0105005	-0.0101808	-0.00209181	2	-4.90992e-05	2.12963e-08
2	0	0	1	1	11.8471	-0.0124996	-0.0121983	-0.00212282	2	-4.91417e-05	2.58948e-08
2	0	0	1	1	11.8671	-0.0144988	-0.0141929	-0.0021487	2	-4.91846e-05	3.04962e-08
2	0	0	1	1	11.8871	-0.016498	-0.0161905	-0.00217154	2	-4.92281e-05	3.51583e-08
2	0	0	1	1	11.9071	-0.0184972	-0.0181806	-0.00218556	2	-4.9272e-05	3.97348e-08
2	0	0	1	1	11.9271	-0.0204964	-0.0201979	-0.0022374	2	-4.93165e-05	4.51908e-08
2	0	0	1	1	11.9471	-0.0224955	-0.0221962	-0.00225204	2	-4.93613e-05	4.99867e-08
2	0	0	1	1	11.967	-0.0244902	-0.0241626	-0.00229195	2	-4.94065e-05	5.53793e-08
2	0	0	0	1	11.9869	-0.0264939	-0.0261672	-0.00229345	2	-4.94524e-05	6.00131e-08
2	0	0	0	1	12.0069	-0.0284931	-0.0281804	-0.00233224	2	-4.94989e-05	6.57234e-08
2	0	0	0	1	12.0269	-0.0304923	-0.0301846	-0.00235404	2	-4.95458e-05	7.10557e-08
2	0	0	0	1	12.0469	-0.0324914	-0.0321506	-0.00236882	2	-4.95931e-05	7.6159e-08
2	0	0	0	1	12.0669	-0.0344906	-0.0341666	-0.00239347	2	-4.9641e-05	8.17768e-08
2	0	0	0	1	12.0869	-0.0364898	-0.0361633	-0.00242119	2	-4.96894e-05	8.75584e-08
2	0	0	0	1	12.1069	-0.038489	-0.0381897	-0.00245052	2	-4.97384e-05	9.35845e-08
2	0	0	0	1	12.1269	-0.0404882	-0.0401735	-0.00247073	2	-4.97877e-05	9.92581e-08
2	0	0	0	1	12.1469	-0.0424873	-0.0421692	-0.00249114	2	-4.98376e-05	1.05049e-07
2	0	0	0	1	12.1669	-0.0444865	-0.0441589	-0.00252671	2	-4.98879e-05	1.11577e-07
2	0	0	0	1	12.1869	-0.0464857	-0.0461546	-0.00255103	2	-4.99388e-05	1.17742e-07
2	0	0	0	1	12.2069	-0.0484849	-0.0481605	-0.00257643	2	-4.99901e-05	1.24082e-07
2	0	0	0	1	12.2269	-0.0504841	-0.0501544	-0.0026032	2	-5.00419e-05	1.30562e-07
2	0	0	0	1	12.2469	-0.0524832	-0.0521565	-0.00261477	2	-5.00941e-05	1.36377e-07
2	0	0	0	1	12.2669	-0.0544824	-0.0541581	-0.00264128	2	-5.0147e-05	1.43047e-07
2	0	0	0	1	12.2869	-0.0564816	-0.0561533	-0.00266854	2	-5.02002e-05	1.49847e-07
2	0	0	0	1	12.3069	-0.0584808	-0.0581463	-0.00269457	2	-5.02539e-05	1.56679e-07
2	0	0	0	1	12.3269	-0.06048	-0.060158	-0.00272514	2	-5.03082e-05	1.63939e-07
2	0	0	0	1	12.3469	-0.0624791	-0.0621558	-0.0027614	2	-5.03631e-05	1.71637e-07
2	0	0	0	1	12.3669	-0.0644783	-0.0641443	-0.00275784	2	-5.04184e-05	1.769e-07
2	0	0	0	1	12.3869	-0.0664775	-0.0661599	-0.00278925	2	-5.04741e-05	1.84537e-07
2	0	0	0	1	12.4069	-0.0684767	-0.06816	-0.00281853	2	-5.05303e-05	1.92111e-07
2	0	0	0	1	12.4269	-0.0704759	-0.070161	-0.00284207	2	-5.0587e-05	1.99403e-07
2	0	0	0	1	12.4469	-0.0724751	-0.0721641	-0.00287013	2	-5.06444e-05	2.07121e-07
2	0	0	1	1	12.4667	-0.0744742	-0.0741625	-0.00290901	2	-5.07019e-05	2.15739e-07
2	0	0	1	1	12.4867	-0.0764734	-0.0761569	-0.002914	2	-5.07601e-05	2.21921e-07
2	0	0	1	1	12.5067	-0.0784726	-0.0781473	-0.00293867	2	-5.08189e-05	2.29649e-07
2	0	0	1	1	12.5267	-0.0804718	-0.0801491	-0.00297038	2	-5.08782e-05	2.38073e-07
2	0	0	1	1	12.5467	-0.0824709	-0.0821333	-0.00299509	2	-5.09381e-05	2.45997e-07
2	0	0	1	1	12.5667	-0.0844701	-0.0841402	-0.00302265	2	-5.09983e-05	2.54326e-07
2	0	0	1	1	12.5867	-0.0864693	-0.0861482	-0.00303954	2	-5.10592e-05	2.6185e-07
2	0	0	1	1	12.6067	-0.0884685	-0.0881418	-0.00309478	2	-5.11206e-05	2.72779e-07
2	0	0	1	1	12.6267	-0.0904677	-0.0901569	-0.00310211	2	-5.11827e-05	2.79677e-07
2	0	0	1	1	12.6467	-0.0924668	-0.0921428	-0.00312955	2	-5.12454e-05	2.88366e-07
2	0	0	1	1	12.6667	-0.094466	-0.0941489	-0.00317215	2	-5.13085e-05	2.98654e-07
2	0	0	1	1	12.6867	-0.0964652	-0.0961365	-0.00318136	2	-5.13721e-05	3.05845e-07
2	0	0	1	1	12.7067	-0.0984644	-0.0981464	-0.00321077	2	-5.14364e-05	3.15125e-07
2	0	0	1	1	12.7267	-0.100464	-0.100144	-0.00325867	2	-5.15012e-05	3.26336e-07
2	0	0	1	1	12.7467	-0.102463	-0.102139	-0.00328436	2	-5.15668e-05	3.35461e-07
2	0	0	1	1	12.7667	-0.104462	-0.104152	-0.00330967	2	-5.1633e-05	3.44711e-07
2	0	0	1	1	12.7867	-0.106461	-0.106157	-0.00335187	2	-5.16999e-05	3.55825e-07
2	0	0	1	1	12.8067	-0.10846	-0.10815	-0.00339367	2	-5.17673e-05	3.67026e-07
2	0	0	1	1	12.8267	-0.110459	-0.110134	-0.00341827	2	-5.18353e-05	3.76469e-07
2	0	0	1	1	12.8467	-0.112459	-0.112132	-0.003437	2	-5.19042e-05	3.85396e-07
2	0	0	1	1	12.8667	-0.114458	-0.114148	-0.00349904	2	-5.19739e-05	3.99408e-07
2	0	0	1	1	12.8867	-0.116457	-0.116156	-0.00353518	2	-5.20442e-05	4.10633e-07
2	0	0	1	1	12.9067	-0.118456	-0.11813	-0.00355934	2	-5.21154e-05	4.20464e-07
2	0	0	1	1	12.9267	-0.120455	-0.120145	-0.00360701	2	-5.21874e-05	4.33364e-07
2	0	0	1	1	12.9466	-0.122461	-0.122137	-0.00369164	2	-5.226e-05	4.50887e-07
2	0	0	0	1	12.9665	-0.124454	-0.124138	-0.00371278	2	-5.23337e-05	4.60899e-07
2	0	0	0	1	12.9865	-0.126453	-0.126125	-0.00375328	2	-5.24085e-05	4.73383e-07
2	0	0	0	1	13.0065	-0.128452	-0.128139	-0.00380141	2	-5.24842e-05	4.87107e-07
2	0	0	0	1	13.0265	-0.130451	-0.130134	-0.00386255	2	-5.2561e-05	5.02647e-07
2	0	0	0	1	13.0465	-0.13245	-0.132143	-0.00393447	2	-5.26391e-05	5.19911e-07
2	0	0	0	1	13.0665	-0.13445	-0.134108	-0.00398091	2	-5.27183e-05	5.33869e-07
2	0	0	0	1	13.0865	-0.136449	-0.136126	-0.00405424	2	-5.27989e-05	5.51887e-07
2	0	0	0	1	13.1065	-0.138448	-0.138134	-0.00411318	2	-5.28808e-05	5.68169e-07
2	0	0	0	1	13.1265	-0.140447	-0.140137	-0.00420186	2	-5.29643e-05	5.88835e-07
2	0	0	0	1	13.1465	-0.142446	-0.142145	-0.00429178	2	-5.30492e-05	6.10056e-07
2	0	0	0	1	13.1665	-0.144446	-0.144134	-0.00436644	2	-5.31358e-05	6.29354e-07
2	0	0	0	1	13.1865	-0.146445	-0.146125	-0.00445097	2	-5.32244e-05	6.50398e-07
2	0	0	0	1	13.2065	-0.148444	-0.148129	-0.0045633	2	-5.33149e-05	6.75958e-07
2	0	0	0	1	13.2265	-0.150443	-0.150138	-0.0046905	2	-5.34075e-05	7.04225e-07
2	0	0	0	1	13.2465	-0.152442	-0.152139	-0.00478503	2	-5.35023e-05	7.27992e-07
2	0	0	0	1	13.2665	-0.154441	-0.154134	-0.00491645	2	-5.35996e-05	7.57791e-07
2	0	0	0	1	13.2865	-0.156441	-0.156139	-0.00505594	2	-5.36995e-05	7.89429e-07
2	0	0	0	1	13.3065	-0.15844	-0.158143	-0.00520162	2	-5.38023e-05	8.22601e-07
2	0	0	0	1	13.3265	-0.160439	-0.160116	-0.00535395	2	-5.39079e-05	8.57252e-07
2	0	0	0	1	13.3465	-0.162438	-0.162128	-0.00552554	2	-5.40169e-05	8.95842e-07
2	0	0	0	1	13.3665	-0.164437	-0.164121	-0.00570279	2	-5.41293e-05	9.35948e-07
2	0	0	0	1	13.3865	-0.166437	-0.166154	-0.00590216	2	-5.42456e-05	9.80668e-07
2	0	0	0	1	13.4065	-0.168436	-0.16814	-0.00610426	2	-5.43658e-05	1.02637e-06
2	0	0	0	1	13.4264	-0.170426	-0.170131	-0.00631071	2	-5.44897e-05	1.07365e-06
2	0	0	1	1	13.4463	-0.172434	-0.172138	-0.00655689	2	-5.46181e-05	1.12869e-06
2	0	0	1	1	13.4663	-0.174433	-0.174152	-0.00679563	2	-5.47518e-05	1.18347e-06
2	0	0	1	1	13.4863	-0.176432	-0.176147	-0.00704715	2	-5.48905e-05	1.24133e-06
2	0	0	1	1	13.5063	-0.178432	-0.178128	-0.00731644	2	-5.50345e-05	1.30326e-06
2	0	0	1	1	13.5263	-0.180431	-0.180129	-0.00760754	2	-5.51839e-05	1.37034e-06
2	0	0	1	1	13.5463	-0.18243	-0.182142	-0.00790469	2	-5.53392e-05	1.43978e-06
2	0	0	1	1	13.5663	-0.184429	-0.184142	-0.00819461	2	-5.55004e-05	1.50897e-06
2	0	0	1	1	13.5863	-0.186428	-0.186121	-0.00851284	2	-5.56678e-05	1.58442e-06
2	0	0	1	1	13.6063	-0.188427	-0.188127	-0.0088617	2	-5.58417e-05	1.66713e-06
2	0	0	1	1	13.6263	-0.190427	-0.190137	-0.00918832	2	-5.60222e-05	1.74704e-06
2	0	0	1	1	13.6463	-0.192426	-0.192127	-0.0095067	2	-5.62092e-05	1.82649e-06
2	0	0	1	1	13.6663	-0.194425	-0.194134	-0.00984513	2	-5.64031e-05	1.91127e-06
2	0	0	1	1	13.6863	-0.196424	-0.196141	-0.0101933	2	-5.66038e-05	1.99933e-06
2	0	0	0	1	13.7373	-0.201522	-0.201196	-0.0107598	2	-5.71384e-05	2.16482e-06
2	0	0	0	1	13.7573	-0.203521	-0.203207	-0.0111486	2	-5.73625e-05	2.26548e-06
2	0	0	0	1	13.7773	-0.20552	-0.205201	-0.0114382	2	-5.75933e-05	2.34714e-06
2	0	0	0	1	13.7973	-0.20752	-0.207201	-0.0117447	2	-5.78304e-05	2.43352e-06
2	0	0	0	1	13.8173	-0.209519	-0.209218	-0.012038	2	-5.80738e-05	2.51858e-06
2	0	0	0	1	13.8373	-0.211518	-0.211205	-0.0123294	2	-5.83232e-05	2.60402e-06
2	0	0	0	1	13.8573	-0.213517	-0.21321	-0.0126683	2	-5.85787e-05	2.701e-06
2	0	0	0	1	13.8773	-0.215516	-0.21521	-0.0129095	2	-5.88397e-05	2.77826e-06
2	0	0	0	1	13.8973	-0.217516	-0.217219	-0.0131853	2	-5.91062e-05	2.8641e-06
2	0	0	0	1	13.9172	-0.21951	-0.219205	-0.0134546	2	-5.93766e-05	2.94931e-06
2	0	0	1	1	13.9371	-0.221514	-0.221229	-0.0136887	2	-5.96519e-05	3.02835e-06
2	0	0	1	1	13.9571	-0.223513	-0.22321	-0.0139194	2	-5.99329e-05	3.10695e-06
2	0	0	1	1	13.9771	-0.225512	-0.225222	-0.014124	2	-6.02183e-05	3.18104e-06
2	0	0	1	1	13.9971	-0.227511	-0.227209	-0.0143235	2	-6.05077e-05	3.25443e-06
2	0	0	1	1	14.0171	-0.229511	-0.229217	-0.0144858	2	-6.08009e-05	3.32039e-06
2	0	0	1	1	14.0371	-0.23151	-0.231214	-0.0146421	2	-6.10973e-05	3.38547e-06
2	0	0	1	1	14.0571	-0.233509	-0.233216	-0.0147738	2	-6.13971e-05	3.44549e-06
2	0	0	1	1	14.0771	-0.235508	-0.2352	-0.0149142	2	-6.16998e-05	3.50783e-06
2	0	0	1	1	14.0971	-0.237507	-0.237206	-0.0150484	2	-6.20051e-05	3.56957e-06
2	0	0	1	1	14.1171	-0.239507	-0.239198	-0.0151798	2	-6.23131e-05	3.63098e-06
2	0	0	1	1	14.1371	-0.241506	-0.2412	-0.0152628	2	-6.26234e-05	3.68139e-06
2	0	0	1	1	14.1571	-0.243505	-0.243198	-0.0153912	2	-6.29357e-05	3.74311e-06
2	0	0	1	1	14.1771	-0.245504	-0.245193	-0.0154934	2	-6.32501e-05	3.79888e-06
2	0	0	1	1	14.1971	-0.247503	-0.247194	-0.0155555	2	-6.3566e-05	3.84522e-06
2	0	0	1	1	14.2171	-0.249502	-0.249196	-0.0156593	2	-6.38836e-05	3.90224e-06
2	0	0	1	1	14.2371	-0.251502	-0.251194	-0.015739	2	-6.42025e-05	3.95353e-06
2	0	0	1	1	14.2571	-0.253501	-0.2532	-0.0157475	2	-6.45229e-05	3.98727e-06
2	0	0	1	1	14.2771	-0.2555	-0.255213	-0.0158731	2	-6.48444e-05	4.05103e-06
2	0	0	1	1	14.2971	-0.257499	-0.257197	-0.0158901	2	-6.51669e-05	4.08687e-06
2	0	0	1	1	14.3171	-0.259498	-0.259178	-0.0159418	2	-6.54904e-05	4.13176e-06
2	0	0	1	1	14.3371	-0.261498	-0.26119	-0.0159718	2	-6.58149e-05	4.17168e-06
2	0	0	1	1	14.3571	-0.263497	-0.263183	-0.016021	2	-6.61401e-05	4.21645e-06
2	0	0	1	1	14.3771	-0.265496	-0.265174	-0.0160853	2	-6.64661e-05	4.26541e-06
2	0	0	1	1	14.3971	-0.267495	-0.2672	-0.016141	2	-6.67932e-05	4.31288e-06
2	0	0	0	1	14.4169	-0.269494	-0.269184	-0.0161513	2	-6.7118e-05	4.34768e-06
2	0	0	0	1	14.4369	-0.271493	-0.271192	-0.0161693	2	-6.74465e-05	4.38499e-06
2	0	0	0	1	14.4569	-0.273493	-0.273192	-0.0162219	2	-6.77756e-05	4.43169e-06
2	0	0	0	1	14.4769	-0.275492	-0.275178	-0.0162254	2	-6.81055e-05	4.46487e-06
2	0	0	0	1	14.4969	-0.277491	-0.277174	-0.016254	2	-6.8436e-05	4.5052e-06
2	0	0	0	1	14.5169	-0.27949	-0.279176	-0.0163205	2	-6.87674e-05	4.5563e-06
2	0	0	0	1	14.5369	-0.281489	-0.281188	-0.0163477	2	-6.90993e-05	4.59677e-06
2	0	0	0	1	14.5569	-0.283488	-0.283181	-0.0163771	2	-6.94321e-05	4.63768e-06
2	0	0	0	1	14.5769	-0.285488	-0.285164	-0.016459	2	-6.97657e-05	4.69353e-06
2	0	0	0	1	14.5969	-0.287487	-0.287175	-0.0164883	2	-7.01001e-05	4.73503e-06
2	0	0	0	1	14.6169	-0.289486	-0.289176	-0.0165207	2	-7.04354e-05	4.77741e-06
2	0	0	0	1	14.6369	-0.291485	-0.291163	-0.0165845	2	-7.07717e-05	4.82879e-06
2	0	0	0	1	14.6569	-0.293484	-0.293181	-0.0166274	2	-7.1109e-05	4.87483e-06
2	0	0	0	1	14.6769	-0.295484	-0.295181	-0.0167168	2	-7.14474e-05	4.9345e-06
2	0	0	0	1	14.6969	-0.297483	-0.297185	-0.0167237	2	-7.17868e-05	4.97004e-06
2	0	0	0	1	14.7169	-0.299482	-0.299163	-0.0167767	2	-7.21274e-05	5.01897e-06
2	0	0	0	1	14.7369	-0.301481	-0.301164	-0.0168462	2	-7.24691e-05	5.07347e-06
2	0	0	0	1	14.7569	-0.30348	-0.303169	-0.0169274	2	-7.28124e-05	5.13187e-06
2	0	0	0	1	14.7769	-0.305479	-0.305173	-0.0169525	2	-7.3157e-05	5.17346e-06
2	0	0	0	1	14.7969	-0.307479	-0.307173	-0.0170682	2	-7.35029e-05	5.24291e-06
2	0	0	0	1	14.8169	-0.309478	-0.309175	-0.0171459	2	-7.38504e-05	5.30108e-06
2	0	0	0	1	14.8369	-0.311477	-0.311159	-0.0172319	2	-7.41996e-05	5.36186e-06
2	0	0	0	1	14.8569	-0.313476	-0.313172	-0.0173295	2	-7.45502e-05	5.4271e-06
2	0	0	0	1	14.8769	-0.315475	-0.315169	-0.0173929	2	-7.49028e-05	5.4817e-06
2	0	0	0	1	14.8968	-0.317481	-0.317178	-0.0175546	2	-7.52555e-05	5.56795e-06
2	0	0	1	1	14.9167	-0.319474	-0.319161	-0.0175892	2	-7.56103e-05	5.61377e-06
2	0	0	1	1	14.9367	-0.321473	-0.321172	-0.0177253	2	-7.59688e-05	5.69288e-06
2	0	0	1	1	14.9567	-0.323472	-0.323173	-0.017803	2	-7.63292e-05	5.75346e-06
2	0	0	1	1	14.9767	-0.325471	-0.325164	-0.0179082	2	-7.66918e-05	5.82311e-06
2	0	0	1	1	14.9967	-0.32747	-0.327169	-0.0180353	2	-7.70565e-05	5.90059e-06
2	0	0	1	1	15.0167	-0.32947	-0.329175	-0.0181609	2	-7.74238e-05	5.97811e-06
2	0	0	1	1	15.0367	-0.331469	-0.331158	-0.0182647	2	-7.77934e-05	6.04851e-06
2	0	0	1	1	15.0567	-0.333468	-0.333138	-0.018379	2	-7.81653e-05	6.12275e-06
2	0	0	1	1	15.0767	-0.335467	-0.335145	-0.0185422	2	-7.854e-05	6.21432e-06
2	0	0	1	1	15.0967	-0.337466	-0.337151	-0.0187002	2	-7.89174e-05	6.3048e-06
2	0	0	1	1	15.1167	-0.339466	-0.339143	-0.018819	2	-7.92974e-05	6.38233e-06
2	0	0	1	1	15.1367	-0.341465	-0.341155	-0.0189686	2	-7.96804e-05	6.47123e-06
2	0	0	1	1	15.1567	-0.343464	-0.343151	-0.0191005	2	-8.00663e-05	6.55434e-06
2	0	0	1	1	15.1767	-0.345463	-0.345156	-0.0192517	2	-8.04555e-05	6.64484e-06
2	0	0	1	1	15.1967	-0.347462	-0.347159	-0.0194262	2	-8.08476e-05	6.74397e-06
2	0	0	1	1	15.2167	-0.349461	-0.349153	-0.0195558	2	-8.12431e-05	6.82796e-06
2	0	0	1	1	15.2367	-0.351461	-0.351157	-0.0197595	2	-8.16418e-05	6.93869e-06
2	0	0	1	1	15.2567	-0.35346	-0.353149	-0.0199323	2	-8.20438e-05	7.03907e-06
2	0	0	1	1	15.2767	-0.355459	-0.355154	-0.0200967	2	-8.24495e-05	7.13742e-06
2	0	0	1	1	15.2967	-0.357458	-0.35716	-0.0202876	2	-8.28586e-05	7.24594e-06
2	0	0	1	1	15.3167	-0.359457	-0.359152	-0.0205076	2	-8.32714e-05	7.36533e-06
2	0	0	1	1	15.3367	-0.361457	-0.361155	-0.0206615	2	-8.36879e-05	7.46199e-06
2	0	0	1	1	15.3567	-0.363456	-0.363156	-0.0208345	2	-8.41082e-05	7.56615e-06
2	0	0	1	1	15.3767	-0.365455	-0.365144	-0.0210512	2	-8.45325e-05	7.68672e-06
2	0	0	0	1	15.3965	-0.367454	-0.367148	-0.0212513	2	-8.49568e-05	7.80237e-06
2	0	0	0	1	15.4165	-0.369453	-0.369147	-0.0214759	2	-8.53893e-05	7.92777e-06
2	0	0	0	1	15.4365	-0.371452	-0.37115	-0.0216511	2	-8.5826e-05	8.0358e-06
2	0	0	0	1	15.4565	-0.373452	-0.373155	-0.0219051	2	-8.62669e-05	8.17399e-06
2	0	0	0	1	15.4765	-0.375451	-0.37516	-0.0221363	2	-8.67121e-05	8.30464e-06
2	0	0	0	1	15.4965	-0.37745	-0.377159	-0.0223532	2	-8.71618e-05	8.43069e-06
2	0	0	0	1	15.5165	-0.379449	-0.379156	-0.0225811	2	-8.7616e-05	8.56175e-06
2	0	0	0	1	15.5365	-0.381448	-0.38115	-0.0227779	2	-8.80748e-05	8.6818e-06
2	0	0	0	1	15.5565	-0.383447	-0.383148	-0.0230242	2	-8.85381e-05	8.82169e-06
2	0	0	0	1	15.5765	-0.385447	-0.385146	-0.0232798	2	-8.90063e-05	8.96615e-06
2	0	0	0	1	15.5965	-0.387446	-0.387144	-0.0235043	2	-8.94792e-05	9.09954e-06
2	0	0	0	1	15.6165	-0.389445	-0.389125	-0.0237463	2	-8.99571e-05	9.2403e-06
2	0	0	0	1	15.6365	-0.391444	-0.391132	-0.0239763	2	-9.04398e-05	9.37789e-06
2	0	0	0	1	15.6565	-0.393443	-0.393141	-0.024228	2	-9.09277e-05	9.52501e-06
2	0	0	0	1	15.6765	-0.395443	-0.395143	-0.0245357	2	-9.14208e-05	9.69509e-06
2	0	0	0	1	15.6965	-0.397442	-0.397149	-0.0247659	2	-9.19191e-05	9.83577e-06
2	0	0	0	1	15.7165	-0.399441	-0.399128	-0.0250516	2	-9.24225e-05	9.9988e-06
2	1	0	1	0	15.7279	-0.399441	-0.399085	-0.0227376	2	-9.26959e-05	9.07424e-06
2	1	0	1	0	15.7479	-0.397442	-0.397082	-0.0213724	2	-9.31294e-05	8.48659e-06
2	1	0	1	0	15.7679	-0.395443	-0.39509	-0.0204898	2	-9.35421e-05	8.09531e-06
2	1	0	1	0	15.7879	-0.393443	-0.393076	-0.0198696	2	-9.39401e-05	7.81026e-06
2	1	0	1	0	15.8079	-0.391444	-0.391078	-0.0192641	2	-9.43256e-05	7.53377e-06
2	1	0	1	0	15.8279	-0.389445	-0.389086	-0.0186906	2	-9.46998e-05	7.27224e-06
2	1	0	1	0	15.8479	-0.387446	-0.387088	-0.0181738	2	-9.50634e-05	7.03485e-06
2	1	0	1	0	15.8679	-0.385447	-0.385098	-0.0177301	2	-9.54174e-05	6.82784e-06
2	1	0	1	0	15.8879	-0.383447	-0.383103	-0.0172711	2	-9.57618e-05	6.61662e-06
2	1	0	1	0	15.9079	-0.381448	-0.381106	-0.0168516	2	-9.60975e-05	6.42225e-06
2	1	0	1	0	15.9279	-0.379449	-0.379083	-0.0163717	2	-9.64244e-05	6.20624e-06
2	1	0	1	0	15.9479	-0.37745	-0.377093	-0.0159986	2	-9.67431e-05	6.03297e-06
2	1	0	1	0	15.9679	-0.375451	-0.375105	-0.0156376	2	-9.7054e-05	5.86573e-06
2	1	0	1	0	15.9879	-0.373452	-0.373119	-0.0152454	2	-9.7357e-05	5.68836e-06
2	1	0	1	0	16.0079	-0.371452	-0.371086	-0.0148517	2	-9.76525e-05	5.51126e-06
2	1	0	1	0	16.0279	-0.369453	-0.36909	-0.014509	2	-9.79407e-05	5.35515e-06
2	1	0	1	0	16.0479	-0.367454	-0.36709	-0.0141572	2	-9.82217e-05	5.19699e-06
2	1	0	0	0	16.0677	-0.365455	-0.365088	-0.0137845	2	-9.8493e-05	5.03255e-06
2	1	0	0	0	16.0877	-0.363456	-0.363092	-0.0134638	2	-9.87603e-05	4.88859e-06
2	1	0	0	0	16.1077	-0.361457	-0.361094	-0.0131461	2	-9.90214e-05	4.74697e-06
2	1	0	0	0	16.1277	-0.359457	-0.359096	-0.0128111	2	-9.92759e-05	4.60042e-06
2	1	0	0	0	16.1477	-0.357458	-0.357111	-0.0125541	2	-9.95244e-05	4.4832e-06
2	1	0	0	0	16.1677	-0.355459	-0.355095	-0.0122536	2	-9.97666e-05	4.35121e-06
2	1	0	0	0	16.1877	-0.35346	-0.353105	-0.0119332	2	-0.000100003	4.21366e-06
2	1	0	0	0	16.2077	-0.351461	-0.351111	-0.0116675	2	-0.000100233	4.09659e-06
2	1	0	0	0	16.2277	-0.349461	-0.349105	-0.011358	2	-0.000100458	3.96515e-06
2	1	0	0	0	16.2477	-0.347462	-0.347111	-0.0110638	2	-0.000100677	3.84039e-06
2	1	0	0	0	16.2677	-0.345463	-0.345105	-0.0108157	2	-0.000100891	3.73254e-06
2	1	0	0	0	16.2877	-0.343464	-0.343087	-0.0105489	2	-0.0001011	3.61921e-06
2	1	0	0	0	16.3077	-0.341465	-0.341119	-0.0103248	2	-0.000101303	3.52199e-06
2	1	0	0	0	16.3277	-0.339466	-0.339112	-0.0100351	2	-0.000101501	3.403e-06
2	1	0	0	0	16.3477	-0.337466	-0.337115	-0.00981079	2	-0.000101694	3.30736e-06
2	1	0	0	0	16.3677	-0.335467	-0.335101	-0.00953922	2	-0.000101882	3.1966e-06
2	1	0	0	0	16.3877	-0.333468	-0.333104	-0.00932362	2	-0.000102065	3.10574e-06
2	1	0	0	0	16.4077	-0.331469	-0.331114	-0.00906133	2	-0.000102244	3.00033e-06
2	1	0	0	0	16.4277	-0.32947	-0.329121	-0.00882357	2	-0.000102418	2.90403e-06
2	1	0	0	0	16.4477	-0.32747	-0.327129	-0.00859809	2	-0.000102587	2.81268e-06
2	1	0	0	0	16.4677	-0.325471	-0.325114	-0.00839382	2	-0.000102752	2.72895e-06
2	1	0	0	0	16.4877	-0.323472	-0.323115	-0.00817061	2	-0.000102912	2.64004e-06
2	1	0	0	0	16.5077	-0.321473	-0.321133	-0.00799267	2	-0.000103069	2.56671e-06
2	1	0	0	0	16.5277	-0.319474	-0.319127	-0.0077716	2	-0.00010322	2.48012e-06
2	1	0	0	0	16.5476	-0.317479	-0.317135	-0.00754862	2	-0.000103367	2.39393e-06
2	1	0	1	0	16.5675	-0.315475	-0.315111	-0.00733736	2	-0.00010351	2.31209e-06
2	1	0	1	0	16.5875	-0.313476	-0.313127	-0.00714221	2	-0.000103649	2.23642e-06
2	1	0	1	0	16.6075	-0.311477	-0.311115	-0.00696822	2	-0.000103785	2.16792e-06
2	1	0	1	0	16.6275	-0.309478	-0.309115	-0.00674365	2	-0.000103916	2.08456e-06
2	1	0	1	0	16.6475	-0.307479	-0.30712	-0.00649766	2	-0.000104044	1.99556e-06
2	1	0	1	0	16.6675	-0.305479	-0.305105	-0.00632567	2	-0.000104168	1.92999e-06
2	1	0	1	0	16.6875	-0.30348	-0.303096	-0.00620123	2	-0.000104288	1.87957e-06
2	1	0	1	0	16.7075	-0.301481	-0.301103	-0.00598544	2	-0.000104404	1.80223e-06
2	1	0	1	0	16.7275	-0.299482	-0.29912	-0.00579967	2	-0.000104517	1.7348e-06
2	1	0	1	0	16.7475	-0.297483	-0.29711	-0.00560327	2	-0.000104626	1.66479e-06
2	1	0	1	0	16.7675	-0.295484	-0.295108	-0.00545395	2	-0.000104731	1.60951e-06
2	1	0	1	0	16.7875	-0.293484	-0.293106	-0.00527605	2	-0.000104833	1.54644e-06
2	1	0	1	0	16.8075	-0.291485	-0.291102	-0.00511601	2	-0.000104931	1.48928e-06
2	1	0	1	0	16.8425	-0.287987	-0.287599	-0.00462153	2	-0.000105101	1.32915e-06
2	1	0	1	0	16.8775	-0.284488	-0.284112	-0.00426711	2	-0.000105263	1.21234e-06
2	1	0	1	0	16.8975	-0.282489	-0.282105	-0.00408494	2	-0.000105346	1.15238e-06
2	1	0	1	0	16.9175	-0.28049	-0.280104	-0.00393274	2	-0.000105426	1.10158e-06
2	1	0	1	0	16.9375	-0.278491	-0.278104	-0.00374109	2	-0.000105502	1.04041e-06
2	1	0	1	0	16.9575	-0.276491	-0.276121	-0.00356874	2	-0.000105575	9.85405e-07
2	1	0	1	0	16.9775	-0.274492	-0.27412	-0.00340073	2	-0.000105645	9.32211e-07
2	1	0	1	0	16.9975	-0.272493	-0.272122	-0.00323238	2	-0.000105711	8.79603e-07
2	1	0	1	0	17.0175	-0.270494	-0.270115	-0.00303736	2	-0.000105773	8.20436e-07
2	1	0	1	0	17.0374	-0.268492	-0.268114	-0.00284015	2	-0.000105832	7.61486e-07
2	1	0	0	0	17.0573	-0.266495	-0.266106	-0.00267438	2	-0.000105887	7.11668e-07
2	1	0	0	0	17.0773	-0.264496	-0.264123	-0.00250169	2	-0.000105939	6.60753e-07
2	1	0	0	0	17.0973	-0.262497	-0.262121	-0.00232445	2	-0.000105987	6.09286e-07
2	1	0	0	0	17.1173	-0.260498	-0.260123	-0.00212595	2	-0.000106031	5.53008e-07
2	1	0	0	0	17.1373	-0.258499	-0.258112	-0.00192983	2	-0.000106071	4.98111e-07
2	1	0	0	0	17.1573	-0.2565	-0.256113	-0.00173997	2	-0.000106108	4.4563e-07
2	1	0	0	0	17.1773	-0.2545	-0.254117	-0.00153944	2	-0.000106141	3.91199e-07
2	1	0	0	0	17.1973	-0.252501	-0.252109	-0.00133792	2	-0.000106169	3.37301e-07
2	1	0	0	0	17.2173	-0.250502	-0.250119	-0.00112172	2	-0.000106194	2.80563e-07
2	1	0	0	0	17.2373	-0.248503	-0.248125	-0.000921338	2	-0.000106214	2.28607e-07
2	1	0	0	0	17.2573	-0.246504	-0.246118	-0.000687458	2	-0.000106229	1.69196e-07
2	1	0	0	0	17.2773	-0.244505	-0.244109	-0.000451248	2	-0.000106241	1.10154e-07
2	1	0	0	0	17.2973	-0.242505	-0.242114	-0.000214905	2	-0.000106247	5.20315e-08
2	1	0	0	0	17.3173	-0.240506	-0.240115	2.49087e-05	2	-0.000106249	5.98095e-09
2	1	0	0	0	17.3373	-0.238507	-0.238114	0.000295562	2	-0.000106245	7.03774e-08
2	1	0	0	0	17.3573	-0.236508	-0.236111	0.00053952	2	-0.000106237	1.27386e-07
2	1	0	0	0	17.3773	-0.234509	-0.234125	0.000809056	2	-0.000106223	1.8942e-07
2	1	0	0	0	17.3973	-0.232509	-0.23212	0.00107987	2	-0.000106204	2.50659e-07
2	1	0	0	0	17.4173	-0.23051	-0.230119	0.0013779	2	-0.000106179	3.1708e-07
2	1	0	0	0	17.4373	-0.228511	-0.228129	0.00166466	2	-0.000106148	3.79759e-07
2	1	0	0	0	17.4573	-0.226512	-0.226121	0.00196574	2	-0.000106112	4.44497e-07
2	1	0	0	0	17.4773	-0.224513	-0.224113	0.00228596	2	-0.000106069	5.12314e-07
2	1	0	0	0	17.4973	-0.222514	-0.222139	0.00258299	2	-0.00010602	5.73782e-07
2	1	0	0	0	17.5173	-0.220514	-0.22013	0.00291227	2	-0.000105965	6.41077e-07
2	1	0	1	0	17.5371	-0.218515	-0.218124	0.00325055	2	-0.000105903	7.09023e-07
2	1	0	1	0	17.5571	-0.216516	-0.216117	0.00358194	2	-0.000105835	7.74117e-07
2	1	0	1	0	17.5771	-0.214517	-0.214115	0.00389099	2	-0.00010576	8.33118e-07
2	1	0	1	0	17.5971	-0.212518	-0.212124	0.00423684	2	-0.000105678	8.98734e-07
2	1	0	1	0	17.6171	-0.210518	-0.210111	0.00454447	2	-0.00010559	9.54846e-07
2	1	0	1	0	17.6371	-0.208519	-0.208127	0.00486375	2	-0.000105496	1.01228e-06
2	1	0	1	0	17.6571	-0.20652	-0.206133	0.00519219	2	-0.000105395	1.07028e-06
2	1	0	1	0	17.6771	-0.204521	-0.204129	0.00549499	2	-0.000105288	1.12169e-06
2	1	0	1	0	17.6971	-0.202522	-0.202098	0.00579936	2	-0.000105175	1.17204e-06
2	1	0	1	0	17.7171	-0.200523	-0.200115	0.00606183	2	-0.000105056	1.21307e-06
2	1	0	1	0	17.7371	-0.198523	-0.198113	0.00634749	2	-0.000104931	1.25752e-06
2	1	0	1	0	17.7571	-0.196524	-0.196109	0.00659675	2	-0.000104802	1.29368e-06
2	1	0	1	0	17.7771	-0.194525	-0.194113	0.00683148	2	-0.000104667	1.32608e-06
2	1	0	1	0	17.7971	-0.192526	-0.1921	0.0070429	2	-0.000104528	1.35294e-06
2	1	0	1	0	17.8171	-0.190527	-0.190102	0.00725852	2	-0.000104385	1.37986e-06
2	1	0	1	0	17.8371	-0.188527	-0.188095	0.00742956	2	-0.000104238	1.39747e-06
2	1	0	1	0	17.8571	-0.186528	-0.186091	0.00756369	2	-0.000104088	1.40754e-06
2	1	0	1	0	17.8771	-0.184529	-0.184088	0.00770009	2	-0.000103935	1.41749e-06
2	1	0	1	0	17.8971	-0.18253	-0.182077	0.00781303	2	-0.000103779	1.42257e-06
2	1	0	1	0	17.9171	-0.180531	-0.180098	0.00791514	2	-0.000103622	1.4255e-06
2	1	0	1	0	17.9371	-0.178532	-0.178112	0.00796204	2	-0.000103463	1.41813e-06
2	1	0	1	0	17.9571	-0.176532	-0.176111	0.00800366	2	-0.000103304	1.40954e-06
2	1	0	1	0	17.9771	-0.174533	-0.174086	0.00802122	2	-0.000103143	1.39639e-06
2	1	0	1	0	17.9971	-0.172534	-0.172108	0.00804039	2	-0.000102982	1.38382e-06
2	1	0	1	0	18.017	-0.170526	-0.170091	0.00806368	2	-0.000102822	1.37156e-06
2	1	0	0	0	18.0369	-0.168536	-0.168107	0.00801559	2	-0.000102662	1.34748e-06
2	1	0	0	0	18.0569	-0.166536	-0.166103	0.00794945	2	-0.000102502	1.32043e-06
2	1	0	0	0	18.0769	-0.164537	-0.164113	0.00792274	2	-0.000102343	1.30022e-06
2	1	0	0	0	18.0969	-0.162538	-0.162089	0.00785025	2	-0.000102186	1.27244e-06
2	1	0	0	0	18.1169	-0.160539	-0.160092	0.00777874	2	-0.000102029	1.24531e-06
2	1	0	0	0	18.1369	-0.15854	-0.158094	0.00768669	2	-0.000101875	1.21522e-06
2	1	0	0	0	18.1569	-0.156541	-0.156084	0.00760976	2	-0.000101721	1.18776e-06
2	1	0	0	0	18.1769	-0.154541	-0.154092	0.00750827	2	-0.00010157	1.15696e-06
2	1	0	0	0	18.1969	-0.152542	-0.1521	0.00740573	2	-0.000101421	1.12641e-06
2	1	0	0	0	18.2169	-0.150543	-0.150105	0.00731785	2	-0.000101273	1.09845e-06
2	1	0	0	0	18.2369	-0.148544	-0.148105	0.00722454	2	-0.000101128	1.06999e-06
2	1	0	0	0	18.2569	-0.146545	-0.146079	0.0071206	2	-0.000100985	1.04017e-06
2	1	0	0	0	18.2769	-0.144546	-0.144098	0.00699547	2	-0.000100843	1.00803e-06
2	1	0	0	0	18.2969	-0.142546	-0.142105	0.00690811	2	-0.000100704	9.8168e-07
2	1	0	0	0	18.3169	-0.140547	-0.140097	0.00680549	2	-0.000100567	9.53426e-07
2	1	0	0	0	18.3369	-0.138548	-0.138107	0.00669682	2	-0.000100432	9.2488e-07
2	1	0	0	0	18.3569	-0.136549	-0.1361	0.00661216	2	-0.000100298	8.99918e-07
2	1	0	0	0	18.3769	-0.13455	-0.134098	0.00649701	2	-0.000100167	8.71238e-07
2	1	0	0	0	18.3969	-0.13255	-0.132109	0.00642881	2	-0.000100037	8.49302e-07
2	1	0	0	0	18.4169	-0.130551	-0.130091	0.00633946	2	-9.99095e-05	8.24707e-07
2	1	0	0	0	18.4369	-0.128552	-0.128097	0.006243	2	-9.97835e-05	7.9971e-07
2	1	0	0	0	18.4569	-0.126553	-0.126108	0.00615962	2	-9.96592e-05	7.76778e-07
2	1	0	0	0	18.4769	-0.124554	-0.124134	0.00608596	2	-9.95366e-05	7.55473e-07
2	1	0	0	0	18.4968	-0.122561	-0.122119	0.00602236	2	-9.94159e-05	7.35446e-07
2	1	0	1	0	18.5167	-0.120555	-0.120133	0.00594343	2	-9.92967e-05	7.14001e-07
2	1	0	1	0	18.5367	-0.118556	-0.118116	0.00587357	2	-9.91784e-05	6.93765e-07
2	1	0	1	0	18.5567	-0.116557	-0.116118	0.00581521	2	-9.90614e-05	6.75252e-07
2	1	0	1	0	18.5767	-0.114558	-0.114115	0.00574363	2	-9.89458e-05	6.55437e-07
2	1	0	1	0	18.5967	-0.112559	-0.112103	0.00567829	2	-9.88313e-05	6.36553e-07
2	1	0	1	0	18.6167	-0.110559	-0.110108	0.00562881	2	-9.87181e-05	6.19775e-07
2	1	0	1	0	18.6367	-0.10856	-0.10811	0.00557291	2	-9.8606e-05	6.02488e-07
2	1	0	1	0	18.6567	-0.106561	-0.106138	0.00551103	2	-9.84952e-05	5.84932e-07
2	1	0	1	0	18.6767	-0.104562	-0.104119	0.00546704	2	-9.83852e-05	5.69226e-07
2	1	0	1	0	18.6967	-0.102563	-0.102117	0.00543082	2	-9.82762e-05	5.54577e-07
2	1	0	1	0	18.7167	-0.100564	-0.100128	0.00537718	2	-9.8168e-05	5.38405e-07
2	1	0	1	0	18.7367	-0.0985643	-0.0981167	0.00533911	2	-9.80607e-05	5.23856e-07
2	1	0	1	0	18.7567	-0.0965652	-0.0961103	0.00528738	2	-9.79542e-05	5.08172e-07
2	1	0	1	0	18.7767	-0.094566	-0.0941269	0.00523641	2	-9.78486e-05	4.92887e-07
2	1	0	1	0	18.7967	-0.0925668	-0.0921304	0.0052215	2	-9.77438e-05	4.81059e-07
2	1	0	1	0	18.8167	-0.0905676	-0.0901292	0.0051818	2	-9.76396e-05	4.67032e-07
2	1	0	1	0	18.8367	-0.0885685	-0.0881382	0.0051611	2	-9.75361e-05	4.5489e-07
2	1	0	1	0	18.8567	-0.0865693	-0.0861308	0.005134	2	-9.7433e-05	4.42195e-07
2	1	0	1	0	18.8767	-0.0845701	-0.0841269	0.00510774	2	-9.73305e-05	4.29698e-07
2	1	0	1	0	18.8967	-0.0825709	-0.0821047	0.00507683	2	-9.72287e-05	4.16832e-07
2	1	0	1	0	18.9167	-0.0805717	-0.0801283	0.00504782	2	-9.71274e-05	4.04473e-07
2	1	0	1	0	18.9367	-0.0785725	-0.0781365	0.00501856	2	-9.70264e-05	3.92132e-07
2	1	0	1	0	18.9567	-0.0765734	-0.0761357	0.00499909	2	-9.69262e-05	3.80609e-07
2	1	0	1	0	18.9767	-0.0745742	-0.0741511	0.00498826	2	-9.68262e-05	3.69885e-07
2	1	0	0	0	18.9965	-0.072575	-0.0721395	0.00497356	2	-9.67272e-05	3.5879e-07
2	1	0	0	0	19.0165	-0.0705758	-0.0701413	0.00494532	2	-9.66278e-05	3.46871e-07
2	1	0	0	0	19.0365	-0.0685766	-0.0681486	0.00493385	2	-9.65289e-05	3.36235e-07
2	1	0	0	0	19.0565	-0.0665775	-0.0661417	0.00491842	2	-9.64301e-05	3.25312e-07
2	1	0	0	0	19.0765	-0.0645783	-0.064156	0.0049031	2	-9.63318e-05	3.14563e-07
2	1	0	0	0	19.0965	-0.0625791	-0.0621302	0.00490025	2	-9.62336e-05	3.04453e-07
2	1	0	0	0	19.1165	-0.0605799	-0.060153	0.00489802	2	-9.61357e-05	2.94631e-07
2	1	0	0	0	19.1365	-0.0585807	-0.0581509	0.00488425	2	-9.60378e-05	2.84024e-07
2	1	0	0	0	19.1565	-0.0565816	-0.0561432	0.00485655	2	-9.59403e-05	2.72662e-07
2	1	0	0	0	19.1765	-0.0545824	-0.0541466	0.00484855	2	-9.5843e-05	2.62533e-07
2	1	0	0	0	19.1965	-0.0525832	-0.0521493	0.00484192	2	-9.57458e-05	2.52502e-07
2	1	0	0	0	19.2165	-0.050584	-0.050143	0.00483211	2	-9.56487e-05	2.42296e-07
2	1	0	0	0	19.2365	-0.0485848	-0.0481429	0.00483341	2	-9.55517e-05	2.32694e-07
2	1	0	0	0	19.2565	-0.0465857	-0.0461525	0.00484247	2	-9.54549e-05	2.23492e-07
2	1	0	0	0	19.2765	-0.0445865	-0.0441492	0.00483578	2	-9.53582e-05	2.13496e-07
2	1	0	0	0	19.2965	-0.0425873	-0.0421688	0.00483748	2	-9.52615e-05	2.03991e-07
2	1	0	0	0	19.3165	-0.0405881	-0.0401562	0.00482459	2	-9.51648e-05	1.93737e-07
2	1	0	0	0	19.3365	-0.0385889	-0.038163	0.00480858	2	-9.50681e-05	1.8351e-07
2	1	0	0	0	19.3565	-0.0365898	-0.0361568	0.00482996	2	-9.49715e-05	1.74636e-07
2	1	0	0	0	19.3765	-0.0345906	-0.0341736	0.00481881	2	-9.48748e-05	1.64676e-07
2	1	0	0	0	19.3965	-0.0325914	-0.0321658	0.00480908	2	-9.47782e-05	1.54688e-07
2	1	0	0	0	19.4165	-0.0305922	-0.0301634	0.00482456	2	-9.46816e-05	1.45525e-07
2	1	0	0	0	19.4365	-0.028593	-0.0281855	0.00482404	2	-9.45851e-05	1.35968e-07
2	1	0	0	0	19.4565	-0.0265939	-0.0261534	0.00483568	2	-9.44884e-05	1.26469e-07
2	1	0	0	0	19.4764	-0.0245901	-0.0241516	0.00484747	2	-9.43922e-05	1.17074e-07
2	1	0	1	0	19.4963	-0.0225955	-0.0221769	0.00482931	2	-9.42956e-05	1.07099e-07
2	1	0	1	0	19.5163	-0.0205963	-0.0201799	0.00483037	2	-9.41988e-05	9.74765e-08
2	1	0	1	0	19.5363	-0.0185971	-0.0181749	0.00484447	2	-9.41018e-05	8.8048e-08
2	1	0	1	0	19.5563	-0.016598	-0.0161947	0.00483674	2	-9.40048e-05	7.83297e-08
2	1	0	1	0	19.5763	-0.0145988	-0.0141832	0.00486687	2	-9.39077e-05	6.90276e-08
2	1	0	1	0	19.5963	-0.0125996	-0.0121991	0.0048592	2	-9.38105e-05	5.92781e-08
2	1	0	1	0	19.6163	-0.0106004	-0.0101782	0.00485953	2	-9.3713e-05	4.94614e-08
2	1	0	1	0	19.6363	-0.00860124	-0.00819275	0.00487421	2	-9.36155e-05	3.99332e-08
2	1	0	1	0	19.6563	-0.00660206	-0.00619199	0.00486753	2	-9.35179e-05	3.01397e-08
2	1	0	1	0	19.6763	-0.00460289	-0.00418826	0.00488027	2	-9.34202e-05	2.04398e-08
2	1	0	1	0	19.6963	-0.00260371	-0.00217181	0.00489677	2	-9.33223e-05	1.06349e-08
2	1	0	1	0	19.7163	-0.000604525	-0.000191824	0.00489085	2	-9.32243e-05	9.38182e-10
2	1	0	1	0	19.7363	0.00139465	0.00179643	0.00491057	2	-9.31261e-05	8.8215e-09
2	1	0	1	0	19.7563	0.00339383	0.00381372	0.00493338	2	-9.30276e-05	1.88146e-08
2	1	0	1	0	19.7763	0.00539301	0.00581406	0.00491343	2	-9.2929e-05	2.8567e-08
2	1	0	1	0	19.7963	0.00739219	0.00782266	0.00493301	2	-9.28304e-05	3.85893e-08
2	1	0	1	0	19.8163	0.00939137	0.00981091	0.00493549	2	-9.27315e-05	4.84217e-08
2	1	0	1	0	19.8363	0.0113905	0.0118057	0.00494859	2	-9.26323e-05	5.84218e-08
2	1	0	1	0	19.8563	0.0133897	0.0138148	0.00496006	2	-9.25331e-05	6.85221e-08
2	1	0	1	0	19.8763	0.0153889	0.0158291	0.00496739	2	-9.24336e-05	7.86293e-08
2	1	0	1	0	19.8963	0.0173881	0.0178307	0.00498391	2	-9.23339e-05	8.88666e-08
2	1	0	1	0	19.9163	0.0193873	0.019838	0.00499985	2	-9.2234e-05	9.91872e-08
2	1	0	1	0	19.9363	0.0213864	0.0218125	0.0050117	2	-9.2134e-05	1.09318e-07
2	1	0	1	0	19.9563	0.0233856	0.0238296	0.0050054	2	-9.20336e-05	1.19277e-07
2	1	0	1	0	19.9632	0.0240925	0.0245254	0.00508797	2	-9.19988e-05	1.24785e-07