File: TAP_Report/Data/MB_Suscept/6_bw_anti_3_C01_2.mpt
EC-Lab ASCII FILE
Nb header lines : 56

Cyclic Voltammetry

Run on channel : 1 (SN 0696)
User :
Electrode connection : standard
Ewe ctrl range : min = -2.50 V, max = 2.50 V
Ewe,I filtering : 50 kHz
Safety Limits :
	Do not start on E overload
Channel : Floating
Acquisition started on : 09/12/2016 16:09:37
Saved on :
	File : 6_bw_anti_3_C01.mpr
	Directory : \\userfs\st659\w2k\EC-Lab\Data\Meth_Blue 12-09-16\
	Host : 144.32.136.43
Device : SP-300 (SN 0182)
Address : USB
EC-Lab for windows v10.44 (software)
Internet server v10.44 (firmware)
Command interpretor v10.44 (firmware)
Electrode material :
Initial state :
Electrolyte :
Comments :
Cable : standard
Reference electrode : SCE Saturated Calomel Electrode (0.241 V)
Electrode surface area : 0.001 cm²
Characteristic mass : 0.001 g
Equivalent Weight : 0.000 g/eq.
Density : 0.000 g/cm3
Ei (V)              0.000
vs.                 Eoc
dE/dt               100.000
dE/dt unit          mV/s
E1 (V)              0.100
vs.                 Ref
Step percent        50
N                   10
E range min (V)     -2.500
E range max (V)     2.500
I Range             Auto
I Range min         Unset
I Range max         Unset
I Range init        Unset
Bandwidth           8
E2 (V)              -0.400
vs.                 Ref
nc cycles           2
Reverse Scan        1
Ef (V)              0.000
vs.                 Eoc

mode	ox/red	error	control changes	counter inc.	time/s	control/V	Ewe/V	<I>/mA	cycle number	(Q-Qo)/C	P/W
2	1	0	1	1	9.9638	0.0180046	0.0185602	0.00498081	2	-5.03156e-05	9.24445e-08
2	1	0	0	1	9.9793	0.019554	0.0200664	0.00489906	2	-5.02396e-05	9.83064e-08
2	1	0	0	1	9.9993	0.0215531	0.0220621	0.00489883	2	-5.01415e-05	1.08078e-07
2	1	0	0	1	10.0193	0.0235523	0.0240643	0.00491276	2	-5.00432e-05	1.18222e-07
2	1	0	0	1	10.0393	0.0255515	0.0260572	0.0049207	2	-4.99447e-05	1.2822e-07
2	1	0	0	1	10.0593	0.0275507	0.0280444	0.00493838	2	-4.98462e-05	1.38494e-07
2	1	0	0	1	10.0793	0.0295498	0.0300433	0.00492775	2	-4.97474e-05	1.48046e-07
2	1	0	0	1	10.0993	0.031549	0.0320326	0.00495449	2	-4.96483e-05	1.58705e-07
2	1	0	0	1	10.1193	0.0335482	0.0340545	0.00494443	2	-4.95492e-05	1.6838e-07
2	1	0	0	1	10.1393	0.0355473	0.0360413	0.00497229	2	-4.94499e-05	1.79208e-07
2	1	0	0	1	10.1593	0.0375465	0.0380516	0.00497063	2	-4.93504e-05	1.8914e-07
2	1	0	0	1	10.1793	0.0395457	0.0400568	0.00499467	2	-4.92506e-05	2.00071e-07
2	1	0	0	1	10.1993	0.0415449	0.0420404	0.00498788	2	-4.91505e-05	2.09693e-07
2	1	0	0	1	10.2193	0.043544	0.0440537	0.00501112	2	-4.90503e-05	2.20758e-07
2	1	0	0	1	10.2393	0.0455432	0.0460406	0.00502267	2	-4.895e-05	2.31247e-07
2	1	0	0	1	10.2593	0.0475424	0.0480401	0.00502405	2	-4.88493e-05	2.41356e-07
2	1	0	0	1	10.2793	0.0495415	0.0500237	0.00503524	2	-4.87485e-05	2.51881e-07
2	1	0	0	1	10.2993	0.0515407	0.052041	0.0050523	2	-4.86475e-05	2.62927e-07
2	1	0	0	1	10.3193	0.0535399	0.0540445	0.00506039	2	-4.85462e-05	2.73486e-07
2	1	0	0	1	10.3393	0.0555391	0.0560332	0.00507947	2	-4.84445e-05	2.84619e-07
2	1	0	0	1	10.3593	0.0575382	0.0580168	0.00509159	2	-4.83427e-05	2.95398e-07
2	1	0	0	1	10.3793	0.0595374	0.0600354	0.00511209	2	-4.82405e-05	3.06906e-07
2	1	0	0	1	10.3993	0.0615366	0.0620344	0.00512644	2	-4.81381e-05	3.18016e-07
2	1	0	0	1	10.4193	0.0635358	0.0640388	0.00512766	2	-4.80353e-05	3.28369e-07
2	1	0	0	1	10.4393	0.0655349	0.0660429	0.00516007	2	-4.79323e-05	3.40786e-07
2	1	0	1	1	10.4591	0.0675341	0.0680384	0.00517577	2	-4.78296e-05	3.52151e-07
2	1	0	1	1	10.4791	0.0695333	0.0700464	0.0051743	2	-4.77258e-05	3.62441e-07
2	1	0	1	1	10.4991	0.0715324	0.0720221	0.00519773	2	-4.76219e-05	3.74351e-07
2	1	0	1	1	10.5191	0.0735316	0.0740339	0.00521792	2	-4.75176e-05	3.86303e-07
2	1	0	1	1	10.5391	0.0755308	0.0760181	0.00524331	2	-4.74129e-05	3.98586e-07
2	1	0	1	1	10.5591	0.07753	0.0780193	0.00523541	2	-4.73079e-05	4.08463e-07
2	1	0	1	1	10.5791	0.0795291	0.0799961	0.00526711	2	-4.72025e-05	4.21349e-07
2	1	0	1	1	10.5991	0.0815283	0.0820134	0.00530593	2	-4.70967e-05	4.35157e-07
2	1	0	1	1	10.6191	0.0835275	0.0840093	0.0053204	2	-4.69906e-05	4.46963e-07
2	1	0	1	1	10.6391	0.0855266	0.0860022	0.00533656	2	-4.6884e-05	4.58956e-07
2	1	0	1	1	10.6591	0.0875258	0.0880066	0.00535643	2	-4.6777e-05	4.71401e-07
2	1	0	1	1	10.6791	0.089525	0.0900122	0.00537413	2	-4.66695e-05	4.83737e-07
2	1	0	1	1	10.6991	0.0915242	0.0920329	0.00539834	2	-4.65616e-05	4.96824e-07
2	1	0	1	1	10.7191	0.0935233	0.0940194	0.00541788	2	-4.64534e-05	5.09386e-07
2	1	0	1	1	10.7391	0.0955225	0.0960155	0.00543239	2	-4.63445e-05	5.21594e-07
2	1	0	1	1	10.7591	0.0975217	0.0980191	0.00546363	2	-4.62353e-05	5.3554e-07
2	1	0	1	1	10.7786	0.0994709	0.09996	0.00548849	2	-4.61284e-05	5.48629e-07
2	0	0	1	1	10.7895	0.0994209	0.0998517	0.00284014	2	-4.60818e-05	2.83593e-07
2	0	0	1	1	10.8095	0.0974217	0.0978374	0.00200465	2	-4.60348e-05	1.9613e-07
2	0	0	1	1	10.8295	0.0954226	0.0958445	0.00154935	2	-4.59997e-05	1.48496e-07
2	0	0	1	1	10.8495	0.0934234	0.0938492	0.00121529	2	-4.59724e-05	1.14054e-07
2	0	0	1	1	10.8695	0.0914242	0.0918269	0.000948555	2	-4.59508e-05	8.71028e-08
2	0	0	1	1	10.8895	0.089425	0.0898219	0.000753888	2	-4.5934e-05	6.77156e-08
2	0	0	1	1	10.9095	0.0874259	0.0878321	0.000573537	2	-4.5921e-05	5.0375e-08
2	0	0	1	1	10.9295	0.0854267	0.0858237	0.000414091	2	-4.59115e-05	3.55389e-08
2	0	0	1	1	10.9495	0.0834275	0.0838355	0.000276817	2	-4.59048e-05	2.32071e-08
2	0	0	1	1	10.9695	0.0814283	0.0818307	0.000134074	2	-4.59008e-05	1.09714e-08
2	0	0	1	1	10.9895	0.0794292	0.0798272	1.16323e-05	2	-4.58993e-05	9.28572e-10
2	0	0	1	1	11.0095	0.07743	0.0778362	-8.98236e-05	2	-4.59001e-05	6.99152e-09
2	0	0	1	1	11.0295	0.0754308	0.0758382	-0.000185996	2	-4.59028e-05	1.41056e-08
2	0	0	1	1	11.0495	0.0734317	0.0738357	-0.000270391	2	-4.59076e-05	1.99645e-08
2	0	0	1	1	11.0695	0.0714325	0.0718332	-0.000367576	2	-4.59142e-05	2.64042e-08
2	0	0	1	1	11.0895	0.0694333	0.0698403	-0.000430841	2	-4.59225e-05	3.009e-08
2	0	0	1	1	11.1095	0.0674341	0.0678459	-0.000525339	2	-4.59323e-05	3.56421e-08
2	0	0	0	1	11.1293	0.065435	0.0658409	-0.000620807	2	-4.59438e-05	4.08745e-08
2	0	0	0	1	11.1493	0.0634358	0.0638444	-0.000672017	2	-4.59565e-05	4.29046e-08
2	0	0	0	1	11.1693	0.0614366	0.0618424	-0.000724131	2	-4.59706e-05	4.4782e-08
2	0	0	0	1	11.1893	0.0594375	0.0598522	-0.000799004	2	-4.59859e-05	4.78221e-08
2	0	0	0	1	11.2093	0.0574383	0.0578667	-0.000845883	2	-4.60023e-05	4.89485e-08
2	0	0	0	1	11.2293	0.0554391	0.055834	-0.000894013	2	-4.602e-05	4.99163e-08
2	0	0	0	1	11.2493	0.0534399	0.0538489	-0.000954205	2	-4.60387e-05	5.13829e-08
2	0	0	0	1	11.2693	0.0514408	0.0518653	-0.00100263	2	-4.60584e-05	5.20018e-08
2	0	0	0	1	11.2893	0.0494416	0.0498376	-0.00105419	2	-4.60792e-05	5.25383e-08
2	0	0	0	1	11.3093	0.0474424	0.0478316	-0.00110033	2	-4.61009e-05	5.26307e-08
2	0	0	0	1	11.3293	0.0454432	0.0458327	-0.0011365	2	-4.61235e-05	5.2089e-08
2	0	0	0	1	11.3493	0.0434441	0.043861	-0.00118845	2	-4.61468e-05	5.21267e-08
2	0	0	0	1	11.3693	0.0414449	0.0418564	-0.00123215	2	-4.61712e-05	5.15733e-08
2	0	0	0	1	11.3893	0.0394457	0.039844	-0.00127345	2	-4.61964e-05	5.07395e-08
2	0	0	0	1	11.4093	0.0374466	0.037854	-0.00129553	2	-4.62224e-05	4.90409e-08
2	0	0	0	1	11.4293	0.0354474	0.0358495	-0.00134766	2	-4.62491e-05	4.83129e-08
2	0	0	0	1	11.4493	0.0334482	0.0338349	-0.00138115	2	-4.62767e-05	4.6731e-08
2	0	0	0	1	11.4693	0.031449	0.0318486	-0.00141591	2	-4.63049e-05	4.50948e-08
2	0	0	0	1	11.4893	0.0294499	0.0298446	-0.0014562	2	-4.63339e-05	4.34599e-08
2	0	0	0	1	11.5093	0.0274507	0.027849	-0.0014939	2	-4.63635e-05	4.16035e-08
2	0	0	0	1	11.5293	0.0254515	0.0258694	-0.00152959	2	-4.63937e-05	3.95696e-08
2	0	0	0	1	11.5493	0.0234524	0.0238475	-0.00155194	2	-4.64244e-05	3.70098e-08
2	0	0	0	1	11.5693	0.0214532	0.02186	-0.00158134	2	-4.64562e-05	3.45683e-08
2	0	0	0	1	11.5893	0.019454	0.0198828	-0.00160876	2	-4.64883e-05	3.19866e-08
2	0	0	0	1	11.6092	0.017448	0.0178491	-0.00168	2	-4.65211e-05	2.99866e-08
2	0	0	1	1	11.6291	0.0154557	0.0158671	-0.00167373	2	-4.65546e-05	2.65572e-08
2	0	0	1	1	11.6491	0.0134565	0.0138555	-0.00171947	2	-4.65887e-05	2.38242e-08
2	0	0	1	1	11.6691	0.0114573	0.0118794	-0.00173918	2	-4.66232e-05	2.06603e-08
2	0	0	1	1	11.6891	0.00945815	0.00984723	-0.00176277	2	-4.66585e-05	1.73584e-08
2	0	0	1	1	11.7091	0.00745897	0.00784922	-0.0017995	2	-4.66943e-05	1.41247e-08
2	0	0	1	1	11.7291	0.0054598	0.00586669	-0.00182353	2	-4.67305e-05	1.06981e-08
2	0	0	1	1	11.7491	0.00346063	0.0038458	-0.00185862	2	-4.67674e-05	7.14787e-09
2	0	0	1	1	11.7691	0.00146146	0.00184143	-0.0018871	2	-4.6805e-05	3.47497e-09
2	0	0	1	1	11.7891	-0.000537714	-0.000169712	-0.00190167	2	-4.68429e-05	3.22736e-10
2	0	0	1	1	11.8091	-0.00253689	-0.00216538	-0.00193755	2	-4.68814e-05	4.19553e-09
2	0	0	1	1	11.8291	-0.00453606	-0.00415428	-0.00195173	2	-4.69203e-05	8.10803e-09
2	0	0	1	1	11.8491	-0.00653523	-0.00615779	-0.0019694	2	-4.69598e-05	1.21271e-08
2	0	0	1	1	11.8691	-0.00853441	-0.0081452	-0.00199907	2	-4.69998e-05	1.62829e-08
2	0	0	1	1	11.8891	-0.0105336	-0.0101532	-0.00202603	2	-4.70403e-05	2.05706e-08
2	0	0	1	1	11.9091	-0.0125328	-0.0121529	-0.00205528	2	-4.70814e-05	2.49776e-08
2	0	0	1	1	11.9291	-0.0145319	-0.0141519	-0.00208621	2	-4.71229e-05	2.95239e-08
2	0	0	1	1	11.9491	-0.0165311	-0.0161552	-0.00210268	2	-4.7165e-05	3.39693e-08
2	0	0	1	1	11.9691	-0.0185303	-0.0181401	-0.00213061	2	-4.72076e-05	3.86495e-08
2	0	0	1	1	11.9891	-0.0205294	-0.0201398	-0.00215946	2	-4.72504e-05	4.34912e-08
2	0	0	1	1	12.0091	-0.0225286	-0.0221459	-0.00218313	2	-4.72939e-05	4.83473e-08
2	0	0	1	1	12.0291	-0.0245278	-0.0241453	-0.00219653	2	-4.73379e-05	5.3036e-08
2	0	0	1	1	12.0491	-0.026527	-0.0261304	-0.00222546	2	-4.73823e-05	5.81522e-08
2	0	0	1	1	12.0691	-0.0285261	-0.0281305	-0.00224758	2	-4.74273e-05	6.32255e-08
2	0	0	1	1	12.089	-0.0305253	-0.0301434	-0.00230624	2	-4.74726e-05	6.95179e-08
2	0	0	0	1	12.1089	-0.0325245	-0.0321302	-0.00229275	2	-4.75184e-05	7.36664e-08
2	0	0	0	1	12.1289	-0.0345237	-0.034146	-0.00232503	2	-4.7565e-05	7.93902e-08
2	0	0	0	1	12.1489	-0.0365228	-0.036112	-0.00235426	2	-4.76119e-05	8.5017e-08
2	0	0	0	1	12.1689	-0.038522	-0.0381568	-0.00237156	2	-4.76594e-05	9.04912e-08
2	0	0	0	1	12.1889	-0.0405212	-0.0401423	-0.00239723	2	-4.77072e-05	9.62304e-08
2	0	0	0	1	12.2089	-0.0425204	-0.042131	-0.00242333	2	-4.77557e-05	1.02097e-07
2	0	0	0	1	12.2289	-0.0445195	-0.0441341	-0.00245632	2	-4.78045e-05	1.08407e-07
2	0	0	0	1	12.2489	-0.0465187	-0.0461202	-0.00248966	2	-4.78538e-05	1.14824e-07
2	0	0	0	1	12.2689	-0.0485179	-0.0481373	-0.00248378	2	-4.79036e-05	1.19562e-07
2	0	0	0	1	12.2889	-0.050517	-0.0501311	-0.0025117	2	-4.7954e-05	1.25914e-07
2	0	0	0	1	12.3089	-0.0525162	-0.0521458	-0.00255068	2	-4.80048e-05	1.33007e-07
2	0	0	0	1	12.3289	-0.0545154	-0.0541438	-0.00255202	2	-4.8056e-05	1.38176e-07
2	0	0	0	1	12.3489	-0.0565146	-0.0561327	-0.00257591	2	-4.81077e-05	1.44593e-07
2	0	0	0	1	12.3689	-0.0585137	-0.0581286	-0.00260176	2	-4.81599e-05	1.51236e-07
2	0	0	0	1	12.3889	-0.0605129	-0.0601249	-0.00264558	2	-4.82126e-05	1.59065e-07
2	0	0	0	1	12.4089	-0.0625121	-0.0621299	-0.00267669	2	-4.82659e-05	1.66302e-07
2	0	0	0	1	12.4289	-0.0645113	-0.0641254	-0.00267738	2	-4.83196e-05	1.71688e-07
2	0	0	0	1	12.4489	-0.0665104	-0.0661397	-0.00271065	2	-4.83739e-05	1.79282e-07
2	0	0	0	1	12.4689	-0.0685096	-0.0681279	-0.0027354	2	-4.84285e-05	1.86357e-07
2	0	0	0	1	12.4889	-0.0705088	-0.0701378	-0.00275621	2	-4.84837e-05	1.93315e-07
2	0	0	0	1	12.5089	-0.0725079	-0.0721225	-0.00278766	2	-4.85393e-05	2.01053e-07
2	0	0	0	1	12.5289	-0.0745071	-0.0741419	-0.00279883	2	-4.85956e-05	2.0751e-07
2	0	0	0	1	12.5489	-0.0765063	-0.0761268	-0.00283386	2	-4.86522e-05	2.15732e-07
2	0	0	0	1	12.5688	-0.0784964	-0.0781136	-0.00287676	2	-4.87091e-05	2.24714e-07
2	0	0	1	1	12.5887	-0.0805046	-0.0801202	-0.0028915	2	-4.87669e-05	2.31667e-07
2	0	0	1	1	12.6087	-0.0825038	-0.0821193	-0.00290837	2	-4.88252e-05	2.38833e-07
2	0	0	1	1	12.6287	-0.084503	-0.0841241	-0.00293704	2	-4.8884e-05	2.47076e-07
2	0	0	1	1	12.6487	-0.0865022	-0.0861132	-0.00298527	2	-4.89434e-05	2.57071e-07
2	0	0	1	1	12.6687	-0.0885013	-0.088115	-0.00301941	2	-4.90033e-05	2.66055e-07
2	0	0	1	1	12.6887	-0.0905005	-0.0901213	-0.003024	2	-4.90638e-05	2.72527e-07
2	0	0	1	1	12.7087	-0.0924997	-0.0921241	-0.0030758	2	-4.9125e-05	2.83356e-07
2	0	0	1	1	12.7287	-0.0944988	-0.0941094	-0.00308971	2	-4.91866e-05	2.90771e-07
2	0	0	1	1	12.7487	-0.096498	-0.0961231	-0.00309907	2	-4.92488e-05	2.97893e-07
2	0	0	1	1	12.7687	-0.0984972	-0.0981069	-0.00313641	2	-4.93115e-05	3.07703e-07
2	0	0	1	1	12.7887	-0.100496	-0.10011	-0.00318232	2	-4.9375e-05	3.18583e-07
2	0	0	1	1	12.8087	-0.102496	-0.10213	-0.0032074	2	-4.94393e-05	3.27572e-07
2	0	0	1	1	12.8287	-0.104495	-0.104119	-0.00324291	2	-4.9504e-05	3.37649e-07
2	0	0	1	1	12.8487	-0.106494	-0.106118	-0.00327433	2	-4.95694e-05	3.47465e-07
2	0	0	1	1	12.8687	-0.108493	-0.108117	-0.00331322	2	-4.96354e-05	3.58214e-07
2	0	0	1	1	12.8887	-0.110492	-0.110128	-0.00335598	2	-4.97022e-05	3.69588e-07
2	0	0	1	1	12.9087	-0.112491	-0.11211	-0.00337621	2	-4.97697e-05	3.78507e-07
2	0	0	1	1	12.9287	-0.114491	-0.114115	-0.00342785	2	-4.98381e-05	3.91168e-07
2	0	0	1	1	12.9487	-0.11649	-0.116123	-0.00347857	2	-4.99073e-05	4.03941e-07
2	0	0	1	1	12.9687	-0.118489	-0.118121	-0.00351113	2	-4.99773e-05	4.14739e-07
2	0	0	1	1	12.9887	-0.120488	-0.120125	-0.00354799	2	-5.00481e-05	4.26203e-07
2	0	0	1	1	13.0087	-0.122487	-0.12209	-0.00360159	2	-5.01197e-05	4.39718e-07
2	0	0	1	1	13.0287	-0.124486	-0.124112	-0.00365138	2	-5.01924e-05	4.5318e-07
2	0	0	1	1	13.0487	-0.126486	-0.126116	-0.00369205	2	-5.02661e-05	4.65625e-07
2	0	0	0	1	13.0685	-0.128485	-0.128109	-0.00376033	2	-5.03403e-05	4.81732e-07
2	0	0	0	1	13.0885	-0.130484	-0.130112	-0.00381227	2	-5.04163e-05	4.96024e-07
2	0	0	0	1	13.1085	-0.132483	-0.132105	-0.0038871	2	-5.04934e-05	5.13505e-07
2	0	0	0	1	13.1285	-0.134482	-0.134108	-0.00394308	2	-5.05718e-05	5.28798e-07
2	0	0	0	1	13.1485	-0.136481	-0.136098	-0.00403127	2	-5.06515e-05	5.48649e-07
2	0	0	0	1	13.1685	-0.138481	-0.138105	-0.00408035	2	-5.07327e-05	5.63514e-07
2	0	0	0	1	13.1885	-0.14048	-0.140118	-0.00417189	2	-5.08156e-05	5.84555e-07
2	0	0	0	1	13.2085	-0.142479	-0.142095	-0.00425461	2	-5.09e-05	6.0456e-07
2	0	0	0	1	13.2285	-0.144478	-0.144103	-0.00434646	2	-5.09862e-05	6.26337e-07
2	0	0	0	1	13.2485	-0.146477	-0.146096	-0.00444161	2	-5.10743e-05	6.48903e-07
2	0	0	0	1	13.2685	-0.148477	-0.148103	-0.00455735	2	-5.11644e-05	6.74958e-07
2	0	0	0	1	13.2885	-0.150476	-0.150114	-0.0046667	2	-5.12568e-05	7.00536e-07
2	0	0	0	1	13.3085	-0.152475	-0.152107	-0.00478557	2	-5.13516e-05	7.27916e-07
2	0	0	0	1	13.3285	-0.154474	-0.154097	-0.00492479	2	-5.1449e-05	7.58893e-07
2	0	0	0	1	13.3485	-0.156473	-0.15609	-0.00505264	2	-5.1549e-05	7.88666e-07
2	0	0	0	1	13.3685	-0.158472	-0.158102	-0.00522656	2	-5.16521e-05	8.26332e-07
2	0	0	0	1	13.3885	-0.160472	-0.16009	-0.00538188	2	-5.17582e-05	8.61587e-07
2	0	0	0	1	13.4085	-0.162471	-0.162104	-0.00557397	2	-5.18679e-05	9.03564e-07
2	0	0	0	1	13.4285	-0.16447	-0.164076	-0.00574531	2	-5.19811e-05	9.42666e-07
2	0	0	0	1	13.4485	-0.166469	-0.166123	-0.00594796	2	-5.20984e-05	9.88093e-07
2	0	0	0	1	13.4685	-0.168468	-0.168109	-0.00617283	2	-5.22197e-05	1.03771e-06
2	0	0	0	1	13.4885	-0.170467	-0.170104	-0.00639086	2	-5.23455e-05	1.08711e-06
2	0	0	0	1	13.5085	-0.172467	-0.17212	-0.0066425	2	-5.2476e-05	1.14331e-06
2	0	0	0	1	13.5285	-0.174466	-0.174111	-0.00688519	2	-5.26115e-05	1.19879e-06
2	0	0	1	1	13.5483	-0.176465	-0.176114	-0.00716072	2	-5.27513e-05	1.2611e-06
2	0	0	1	1	13.5683	-0.178464	-0.178122	-0.00744885	2	-5.28977e-05	1.3268e-06
2	0	0	1	1	13.5883	-0.180463	-0.180107	-0.00773433	2	-5.30497e-05	1.39301e-06
2	0	0	1	1	13.6083	-0.182462	-0.18211	-0.00805542	2	-5.32077e-05	1.46698e-06
2	0	0	1	1	13.6283	-0.184462	-0.184096	-0.00835419	2	-5.3372e-05	1.53797e-06
2	0	0	1	1	13.6483	-0.186461	-0.186094	-0.00867166	2	-5.35426e-05	1.61374e-06
2	0	0	1	1	13.6683	-0.18846	-0.188102	-0.00902639	2	-5.37202e-05	1.69788e-06
2	0	0	1	1	13.6883	-0.190459	-0.190104	-0.00938763	2	-5.39044e-05	1.78463e-06
2	0	0	1	1	13.7083	-0.192458	-0.192108	-0.00971365	2	-5.40956e-05	1.86607e-06
2	0	0	1	1	13.7283	-0.194457	-0.194119	-0.0100692	2	-5.42937e-05	1.95462e-06
2	0	0	0	1	13.7793	-0.199555	-0.199189	-0.0106611	2	-5.4823e-05	2.12358e-06
2	0	0	0	1	13.7993	-0.201555	-0.201189	-0.0110394	2	-5.50453e-05	2.221e-06
2	0	0	0	1	13.8193	-0.203554	-0.203186	-0.0113975	2	-5.52745e-05	2.31582e-06
2	0	0	0	1	13.8393	-0.205553	-0.205189	-0.0117291	2	-5.55105e-05	2.40669e-06
2	0	0	0	1	13.8593	-0.207552	-0.207197	-0.0120145	2	-5.5753e-05	2.48936e-06
2	0	0	0	1	13.8793	-0.209551	-0.209179	-0.0123395	2	-5.60017e-05	2.58117e-06
2	0	0	0	1	13.8993	-0.21155	-0.211181	-0.0126366	2	-5.62566e-05	2.66862e-06
2	0	0	0	1	13.9193	-0.21355	-0.21318	-0.0129428	2	-5.65176e-05	2.75914e-06
2	0	0	0	1	13.9393	-0.215549	-0.215179	-0.0132337	2	-5.67841e-05	2.84763e-06
2	0	0	0	1	13.9593	-0.217548	-0.217181	-0.0134606	2	-5.70562e-05	2.92339e-06
2	0	0	0	1	13.9793	-0.219547	-0.219173	-0.0137377	2	-5.73333e-05	3.01094e-06
2	0	0	0	1	13.9993	-0.221546	-0.221195	-0.0139324	2	-5.76153e-05	3.08177e-06
2	0	0	0	1	14.0192	-0.223536	-0.223163	-0.0141449	2	-5.79003e-05	3.15661e-06
2	0	0	1	1	14.0391	-0.225545	-0.225186	-0.0144089	2	-5.81898e-05	3.24469e-06
2	0	0	1	1	14.0591	-0.227544	-0.227185	-0.014614	2	-5.84846e-05	3.32009e-06
2	0	0	1	1	14.0791	-0.229543	-0.229159	-0.0147271	2	-5.8783e-05	3.37484e-06
2	0	0	1	1	14.0991	-0.231542	-0.231162	-0.0149062	2	-5.90847e-05	3.44575e-06
2	0	0	1	1	14.1191	-0.233541	-0.233178	-0.0150899	2	-5.93897e-05	3.51864e-06
2	0	0	1	1	14.1391	-0.23554	-0.235168	-0.0152053	2	-5.96975e-05	3.57579e-06
2	0	0	1	1	14.1591	-0.23754	-0.237159	-0.0153221	2	-6.00078e-05	3.63378e-06
2	0	0	1	1	14.1791	-0.239539	-0.239172	-0.0154563	2	-6.03206e-05	3.6967e-06
2	0	0	1	1	14.1991	-0.241538	-0.241161	-0.0155805	2	-6.06357e-05	3.7574e-06
2	0	0	1	1	14.2191	-0.243537	-0.243151	-0.0156338	2	-6.09527e-05	3.80137e-06
2	0	0	1	1	14.2391	-0.245536	-0.245166	-0.0157375	2	-6.12715e-05	3.85831e-06
2	0	0	1	1	14.2591	-0.247536	-0.247158	-0.0157825	2	-6.15918e-05	3.90076e-06
2	0	0	1	1	14.2791	-0.249535	-0.249158	-0.0158481	2	-6.19137e-05	3.94867e-06
2	0	0	1	1	14.2991	-0.251534	-0.251143	-0.015954	2	-6.22367e-05	4.00674e-06
2	0	0	1	1	14.3191	-0.253533	-0.253157	-0.0160058	2	-6.2561e-05	4.05197e-06
2	0	0	1	1	14.3391	-0.255532	-0.255148	-0.0160486	2	-6.28864e-05	4.09476e-06
2	0	0	1	1	14.3591	-0.257531	-0.257149	-0.0161032	2	-6.32127e-05	4.14092e-06
2	0	0	1	1	14.3791	-0.259531	-0.25916	-0.0161224	2	-6.35398e-05	4.17828e-06
2	0	0	1	1	14.3991	-0.26153	-0.261153	-0.0161741	2	-6.38677e-05	4.22391e-06
2	0	0	1	1	14.4191	-0.263529	-0.263138	-0.0161828	2	-6.41961e-05	4.25829e-06
2	0	0	1	1	14.4391	-0.265528	-0.265174	-0.016251	2	-6.45255e-05	4.30934e-06
2	0	0	1	1	14.4591	-0.267527	-0.267153	-0.0162889	2	-6.48555e-05	4.35163e-06
2	0	0	1	1	14.4791	-0.269526	-0.269144	-0.0162721	2	-6.5186e-05	4.37955e-06
2	0	0	1	1	14.4991	-0.271526	-0.271151	-0.0163363	2	-6.55173e-05	4.42961e-06
2	0	0	0	1	14.5189	-0.273525	-0.273146	-0.0163732	2	-6.5846e-05	4.47227e-06
2	0	0	0	1	14.5389	-0.275524	-0.275162	-0.0163629	2	-6.61783e-05	4.50244e-06
2	0	0	0	1	14.5589	-0.277523	-0.27714	-0.0164083	2	-6.65111e-05	4.5474e-06
2	0	0	0	1	14.5789	-0.279522	-0.279161	-0.0164342	2	-6.68445e-05	4.58779e-06
2	0	0	0	1	14.5989	-0.281521	-0.281165	-0.0164845	2	-6.71785e-05	4.63484e-06
2	0	0	0	1	14.6189	-0.283521	-0.283154	-0.016512	2	-6.7513e-05	4.67545e-06
2	0	0	0	1	14.6389	-0.28552	-0.285147	-0.016534	2	-6.78481e-05	4.71463e-06
2	0	0	0	1	14.6589	-0.287519	-0.287149	-0.0165501	2	-6.81838e-05	4.75236e-06
2	0	0	0	1	14.6789	-0.289518	-0.289149	-0.0165938	2	-6.85203e-05	4.79809e-06
2	0	0	0	1	14.6989	-0.291517	-0.291149	-0.0166406	2	-6.88575e-05	4.8449e-06
2	0	0	0	1	14.7189	-0.293517	-0.293147	-0.0166731	2	-6.91957e-05	4.88766e-06
2	0	0	0	1	14.7389	-0.295516	-0.29515	-0.0167154	2	-6.95346e-05	4.93354e-06
2	0	0	0	1	14.7589	-0.297515	-0.297143	-0.0167472	2	-6.98744e-05	4.97633e-06
2	0	0	0	1	14.7789	-0.299514	-0.299139	-0.0168107	2	-7.02152e-05	5.02872e-06
2	0	0	0	1	14.7989	-0.301513	-0.301135	-0.0168244	2	-7.05569e-05	5.06643e-06
2	0	0	0	1	14.8189	-0.303512	-0.303157	-0.0169254	2	-7.08999e-05	5.13106e-06
2	0	0	0	1	14.8389	-0.305512	-0.305164	-0.0169965	2	-7.12441e-05	5.18672e-06
2	0	0	0	1	14.8589	-0.307511	-0.307153	-0.0170739	2	-7.15895e-05	5.24428e-06
2	0	0	0	1	14.8789	-0.30951	-0.309155	-0.0170751	2	-7.19362e-05	5.27884e-06
2	0	0	0	1	14.8989	-0.311509	-0.311142	-0.0171975	2	-7.22841e-05	5.35086e-06
2	0	0	0	1	14.9189	-0.313508	-0.313148	-0.0172431	2	-7.26334e-05	5.39964e-06
2	0	0	0	1	14.9389	-0.315507	-0.315161	-0.0173466	2	-7.29846e-05	5.46697e-06
2	0	0	0	1	14.9589	-0.317507	-0.317143	-0.0174481	2	-7.33372e-05	5.53356e-06
2	0	0	0	1	14.9789	-0.319506	-0.319143	-0.017509	2	-7.36916e-05	5.58789e-06
2	0	0	1	1	14.9987	-0.321505	-0.321139	-0.0176109	2	-7.40445e-05	5.65555e-06
2	0	0	1	1	15.0187	-0.323504	-0.323154	-0.017713	2	-7.44025e-05	5.72401e-06
2	0	0	1	1	15.0387	-0.325503	-0.325126	-0.0177903	2	-7.47625e-05	5.78408e-06
2	0	0	1	1	15.0587	-0.327502	-0.327125	-0.0178761	2	-7.51243e-05	5.84772e-06
2	0	0	1	1	15.0787	-0.329502	-0.329125	-0.017999	2	-7.54884e-05	5.92391e-06
2	0	0	1	1	15.0987	-0.331501	-0.331149	-0.0181075	2	-7.58546e-05	5.99627e-06
2	0	0	1	1	15.1187	-0.3335	-0.333127	-0.0181962	2	-7.6223e-05	6.06164e-06
2	0	0	1	1	15.1387	-0.335499	-0.335133	-0.0183833	2	-7.65938e-05	6.16085e-06
2	0	0	1	1	15.1587	-0.337498	-0.337135	-0.0185213	2	-7.6967e-05	6.24418e-06
2	0	0	1	1	15.1787	-0.339498	-0.339125	-0.0186034	2	-7.73427e-05	6.30887e-06
2	0	0	1	1	15.1987	-0.341497	-0.341115	-0.0187078	2	-7.77212e-05	6.38151e-06
2	0	0	1	1	15.2187	-0.343496	-0.343122	-0.0188836	2	-7.81022e-05	6.47936e-06
2	0	0	1	1	15.2387	-0.345495	-0.345136	-0.019007	2	-7.84861e-05	6.56002e-06
2	0	0	1	1	15.2587	-0.347494	-0.347119	-0.0191711	2	-7.88729e-05	6.65464e-06
2	0	0	1	1	15.2787	-0.349493	-0.349117	-0.0192921	2	-7.92626e-05	6.7352e-06
2	0	0	1	1	15.2987	-0.351493	-0.351129	-0.0194767	2	-7.96554e-05	6.83882e-06
2	0	0	1	1	15.3187	-0.353492	-0.353121	-0.0196212	2	-8.00512e-05	6.92864e-06
2	0	0	1	1	15.3387	-0.355491	-0.355129	-0.0197512	2	-8.04502e-05	7.01421e-06
2	0	0	1	1	15.3587	-0.35749	-0.357131	-0.0199372	2	-8.08527e-05	7.1202e-06
2	0	0	1	1	15.3787	-0.359489	-0.359121	-0.0201309	2	-8.12584e-05	7.22942e-06
2	0	0	1	1	15.3987	-0.361488	-0.361124	-0.0203058	2	-8.16676e-05	7.3329e-06
2	0	0	1	1	15.4187	-0.363488	-0.363129	-0.0204782	2	-8.20803e-05	7.43623e-06
2	0	0	1	1	15.4387	-0.365487	-0.36511	-0.0206829	2	-8.24966e-05	7.55154e-06
2	0	0	1	1	15.4587	-0.367486	-0.367115	-0.0208301	2	-8.29167e-05	7.64704e-06
2	0	0	0	1	15.4785	-0.369485	-0.36911	-0.0210593	2	-8.33366e-05	7.77319e-06
2	0	0	0	1	15.4985	-0.371484	-0.371121	-0.0212605	2	-8.37646e-05	7.89021e-06
2	0	0	0	1	15.5185	-0.373483	-0.373123	-0.0214615	2	-8.41965e-05	8.00779e-06
2	0	0	0	1	15.5385	-0.375483	-0.375126	-0.0216285	2	-8.46324e-05	8.1134e-06
2	0	0	0	1	15.5585	-0.377482	-0.37713	-0.0218525	2	-8.50724e-05	8.24122e-06
2	0	0	0	1	15.5785	-0.379481	-0.379121	-0.0220951	2	-8.55165e-05	8.37672e-06
2	0	0	0	1	15.5985	-0.38148	-0.381117	-0.0222734	2	-8.59651e-05	8.48876e-06
2	0	0	0	1	15.6185	-0.383479	-0.383128	-0.0225056	2	-8.64181e-05	8.62253e-06
2	0	0	0	1	15.6385	-0.385478	-0.385127	-0.022742	2	-8.68753e-05	8.75854e-06
2	0	0	0	1	15.6585	-0.387478	-0.38711	-0.0229807	2	-8.73371e-05	8.89606e-06
2	0	0	0	1	15.6785	-0.389477	-0.389115	-0.0231926	2	-8.78036e-05	9.02461e-06
2	0	0	0	1	15.6985	-0.391476	-0.391104	-0.0234042	2	-8.82745e-05	9.15347e-06
2	0	0	0	1	15.7185	-0.393475	-0.393113	-0.0236565	2	-8.87505e-05	9.29969e-06
2	0	0	0	1	15.7385	-0.395474	-0.395115	-0.0239264	2	-8.92312e-05	9.45369e-06
2	0	0	0	1	15.7585	-0.397473	-0.397101	-0.0241452	2	-8.97169e-05	9.58807e-06
2	0	0	0	1	15.7785	-0.399473	-0.399111	-0.0244255	2	-9.02075e-05	9.74847e-06
2	1	0	0	0	15.7844	-0.399922	-0.399506	-0.0228476	2	-9.03516e-05	9.12775e-06
2	1	0	1	0	15.7999	-0.398373	-0.397955	-0.0211077	2	-9.06839e-05	8.3999e-06
2	1	0	1	0	15.8199	-0.396374	-0.395955	-0.02023	2	-9.10912e-05	8.01019e-06
2	1	0	1	0	15.8399	-0.394375	-0.393933	-0.0194549	2	-9.14824e-05	7.66395e-06
2	1	0	1	0	15.8599	-0.392376	-0.391955	-0.0188674	2	-9.18605e-05	7.39519e-06
2	1	0	1	0	15.8799	-0.390376	-0.389946	-0.0183208	2	-9.22272e-05	7.14413e-06
2	1	0	1	0	15.8999	-0.388377	-0.387953	-0.0177871	2	-9.25834e-05	6.90057e-06
2	1	0	1	0	15.9199	-0.386378	-0.385954	-0.0173308	2	-9.29298e-05	6.68889e-06
2	1	0	1	0	15.9399	-0.384379	-0.383964	-0.0168976	2	-9.3267e-05	6.48808e-06
2	1	0	1	0	15.9599	-0.38238	-0.38197	-0.0164768	2	-9.35955e-05	6.29365e-06
2	1	0	1	0	15.9799	-0.380381	-0.379967	-0.0160309	2	-9.39154e-05	6.0912e-06
2	1	0	1	0	15.9999	-0.378381	-0.377949	-0.0155993	2	-9.42272e-05	5.89574e-06
2	1	0	1	0	16.0199	-0.376382	-0.375961	-0.0152597	2	-9.45312e-05	5.73706e-06
2	1	0	1	0	16.0399	-0.374383	-0.373955	-0.0148735	2	-9.48276e-05	5.56201e-06
2	1	0	1	0	16.0599	-0.372384	-0.371953	-0.014486	2	-9.51167e-05	5.38811e-06
2	1	0	1	0	16.0799	-0.370385	-0.369962	-0.0141804	2	-9.53987e-05	5.24622e-06
2	1	0	0	0	16.0997	-0.368386	-0.367943	-0.0138113	2	-9.56706e-05	5.08179e-06
2	1	0	0	0	16.1197	-0.366386	-0.365962	-0.0135057	2	-9.59388e-05	4.94255e-06
2	1	0	0	0	16.1397	-0.364387	-0.363957	-0.0131891	2	-9.62004e-05	4.80029e-06
2	1	0	0	0	16.1597	-0.362388	-0.36196	-0.0128572	2	-9.64559e-05	4.65379e-06
2	1	0	0	0	16.1797	-0.360389	-0.35996	-0.0125426	2	-9.6705e-05	4.51483e-06
2	1	0	0	0	16.1997	-0.35839	-0.357964	-0.0122483	2	-9.69481e-05	4.38444e-06
2	1	0	0	0	16.2197	-0.356391	-0.355975	-0.0119767	2	-9.71854e-05	4.2634e-06
2	1	0	0	0	16.2397	-0.354391	-0.35398	-0.0116736	2	-9.74166e-05	4.13223e-06
2	1	0	0	0	16.2597	-0.352392	-0.35198	-0.0113714	2	-9.76422e-05	4.0025e-06
2	1	0	0	0	16.2797	-0.350393	-0.349971	-0.011099	2	-9.78623e-05	3.88432e-06
2	1	0	0	0	16.2997	-0.348394	-0.347983	-0.0108663	2	-9.80771e-05	3.78129e-06
2	1	0	0	0	16.3197	-0.346395	-0.345979	-0.0105706	2	-9.82864e-05	3.65719e-06
2	1	0	0	0	16.3397	-0.344395	-0.343964	-0.0103083	2	-9.84905e-05	3.5457e-06
2	1	0	0	0	16.3597	-0.342396	-0.341969	-0.0100732	2	-9.86896e-05	3.44471e-06
2	1	0	0	0	16.3797	-0.340397	-0.339966	-0.00981946	2	-9.88836e-05	3.33828e-06
2	1	0	0	0	16.3997	-0.338398	-0.337976	-0.0096157	2	-9.90728e-05	3.24987e-06
2	1	0	0	0	16.4197	-0.336399	-0.335973	-0.00934037	2	-9.92572e-05	3.13812e-06
2	1	0	0	0	16.4397	-0.3344	-0.333973	-0.00907461	2	-9.94369e-05	3.03067e-06
2	1	0	0	0	16.4597	-0.3324	-0.331979	-0.00883215	2	-9.96119e-05	2.93209e-06
2	1	0	0	0	16.4797	-0.330401	-0.329988	-0.00866152	2	-9.97825e-05	2.8582e-06
2	1	0	0	0	16.4997	-0.328402	-0.327979	-0.00844631	2	-9.99486e-05	2.77021e-06
2	1	0	0	0	16.5197	-0.326403	-0.325979	-0.00823909	2	-0.00010011	2.68577e-06
2	1	0	0	0	16.5397	-0.324404	-0.323989	-0.00795727	2	-0.000100268	2.57807e-06
2	1	0	0	0	16.5597	-0.322405	-0.321972	-0.00781318	2	-0.000100421	2.51563e-06
2	1	0	0	0	16.5796	-0.320399	-0.319981	-0.00756829	2	-0.000100569	2.42171e-06
2	1	0	1	0	16.5995	-0.318406	-0.317969	-0.007403	2	-0.000100713	2.35393e-06
2	1	0	1	0	16.6195	-0.316407	-0.315982	-0.00718226	2	-0.000100854	2.26947e-06
2	1	0	1	0	16.6395	-0.314408	-0.313966	-0.00702187	2	-0.000100991	2.20463e-06
2	1	0	1	0	16.6595	-0.312409	-0.311988	-0.00677207	2	-0.000101124	2.1128e-06
2	1	0	1	0	16.6795	-0.31041	-0.309994	-0.0066257	2	-0.000101253	2.05393e-06
2	1	0	1	0	16.6995	-0.30841	-0.307992	-0.00643168	2	-0.000101378	1.9809e-06
2	1	0	1	0	16.7195	-0.306411	-0.305998	-0.00624191	2	-0.0001015	1.91001e-06
2	1	0	1	0	16.7395	-0.304412	-0.303979	-0.00603438	2	-0.000101618	1.83432e-06
2	1	0	1	0	16.7595	-0.302413	-0.302001	-0.00588658	2	-0.000101732	1.77775e-06
2	1	0	1	0	16.7795	-0.300414	-0.299993	-0.00569309	2	-0.000101843	1.70789e-06
2	1	0	1	0	16.7995	-0.298415	-0.297975	-0.0054891	2	-0.00010195	1.63561e-06
2	1	0	1	0	16.8195	-0.296415	-0.295977	-0.00533785	2	-0.000102054	1.57988e-06
2	1	0	1	0	16.8395	-0.294416	-0.293987	-0.0051445	2	-0.000102154	1.51242e-06
2	1	0	1	0	16.8595	-0.292417	-0.291978	-0.00502167	2	-0.000102251	1.46622e-06
2	1	0	1	0	16.895	-0.288868	-0.288441	-0.00459897	2	-0.000102417	1.32653e-06
2	1	0	0	0	16.9305	-0.28532	-0.284894	-0.00417614	2	-0.000102577	1.18976e-06
2	1	0	0	0	16.9505	-0.283321	-0.282897	-0.00399742	2	-0.000102658	1.13086e-06
2	1	0	0	0	16.9705	-0.281322	-0.280916	-0.00383172	2	-0.000102737	1.07639e-06
2	1	0	0	0	16.9905	-0.279322	-0.278908	-0.00366314	2	-0.000102811	1.02168e-06
2	1	0	0	0	17.0105	-0.277323	-0.276903	-0.00350406	2	-0.000102883	9.70283e-07
2	1	0	0	0	17.0305	-0.275324	-0.274902	-0.00332595	2	-0.000102951	9.14311e-07
2	1	0	0	0	17.0505	-0.273325	-0.272911	-0.00313989	2	-0.000103015	8.56911e-07
2	1	0	1	0	17.0703	-0.271326	-0.270901	-0.00298772	2	-0.000103076	8.09377e-07
2	1	0	1	0	17.0903	-0.269327	-0.268892	-0.00278639	2	-0.000103133	7.49237e-07
2	1	0	1	0	17.1103	-0.267327	-0.266908	-0.00261245	2	-0.000103187	6.97284e-07
2	1	0	1	0	17.1303	-0.265328	-0.264911	-0.00242876	2	-0.000103237	6.43404e-07
2	1	0	1	0	17.1503	-0.263329	-0.26289	-0.00224256	2	-0.000103283	5.89547e-07
2	1	0	1	0	17.1703	-0.26133	-0.2609	-0.00207775	2	-0.000103326	5.42087e-07
2	1	0	1	0	17.1903	-0.259331	-0.258884	-0.00188392	2	-0.000103365	4.87718e-07
2	1	0	1	0	17.2103	-0.257332	-0.256908	-0.00167291	2	-0.000103401	4.29784e-07
2	1	0	1	0	17.2303	-0.255332	-0.254906	-0.00148289	2	-0.000103432	3.77997e-07
2	1	0	1	0	17.2503	-0.253333	-0.252908	-0.00127778	2	-0.000103459	3.23162e-07
2	1	0	1	0	17.2703	-0.251334	-0.250908	-0.00105307	2	-0.000103482	2.64223e-07
2	1	0	1	0	17.2903	-0.249335	-0.248901	-0.000831734	2	-0.000103501	2.07019e-07
2	1	0	1	0	17.3103	-0.247336	-0.246917	-0.000597958	2	-0.000103515	1.47646e-07
2	1	0	1	0	17.3303	-0.245336	-0.244908	-0.000373821	2	-0.000103524	9.15516e-08
2	1	0	1	0	17.3503	-0.243337	-0.242904	-0.000142073	2	-0.000103529	3.45102e-08
2	1	0	1	0	17.3703	-0.241338	-0.240886	0.000130394	2	-0.000103529	3.14102e-08
2	1	0	1	0	17.3903	-0.239339	-0.238903	0.000373505	2	-0.000103524	8.92313e-08
2	1	0	1	0	17.4103	-0.23734	-0.23691	0.000618469	2	-0.000103514	1.46521e-07
2	1	0	1	0	17.4303	-0.235341	-0.234908	0.000909091	2	-0.000103498	2.13553e-07
2	1	0	1	0	17.4503	-0.233341	-0.232905	0.00118965	2	-0.000103477	2.77076e-07
2	1	0	1	0	17.4703	-0.231342	-0.230893	0.00147532	2	-0.00010345	3.40641e-07
2	1	0	1	0	17.4903	-0.229343	-0.228901	0.00176509	2	-0.000103418	4.04032e-07
2	1	0	1	0	17.5103	-0.227344	-0.226918	0.0020642	2	-0.000103379	4.68404e-07
2	1	0	1	0	17.5303	-0.225345	-0.224908	0.00240967	2	-0.000103334	5.41953e-07
2	1	0	0	0	17.5501	-0.223346	-0.222899	0.00273485	2	-0.000103283	6.09597e-07
2	1	0	0	0	17.5701	-0.221346	-0.220921	0.00303731	2	-0.000103225	6.71007e-07
2	1	0	0	0	17.5901	-0.219347	-0.218914	0.00337904	2	-0.000103161	7.39718e-07
2	1	0	0	0	17.6101	-0.217348	-0.216926	0.00369538	2	-0.00010309	8.01624e-07
2	1	0	0	0	17.6301	-0.215349	-0.214902	0.00404783	2	-0.000103012	8.69887e-07
2	1	0	0	0	17.6501	-0.21335	-0.212898	0.00439978	2	-0.000102927	9.36706e-07
2	1	0	0	0	17.6701	-0.21135	-0.210907	0.00472219	2	-0.000102836	9.95942e-07
2	1	0	0	0	17.6901	-0.209351	-0.208904	0.00506712	2	-0.000102738	1.05854e-06
2	1	0	0	0	17.7101	-0.207352	-0.206904	0.00539189	2	-0.000102633	1.1156e-06
2	1	0	0	0	17.7301	-0.205353	-0.204901	0.00570511	2	-0.000102522	1.16898e-06
2	1	0	0	0	17.7501	-0.203354	-0.202901	0.00602501	2	-0.000102404	1.22248e-06
2	1	0	0	0	17.7701	-0.201355	-0.200895	0.00631752	2	-0.00010228	1.26916e-06
2	1	0	0	0	17.7901	-0.199355	-0.198878	0.00662531	2	-0.000102151	1.31763e-06
2	1	0	0	0	17.8101	-0.197356	-0.196906	0.00686312	2	-0.000102016	1.35139e-06
2	1	0	0	0	17.8301	-0.195357	-0.194889	0.00712572	2	-0.000101875	1.38873e-06
2	1	0	0	0	17.8501	-0.193358	-0.192894	0.00737349	2	-0.00010173	1.4223e-06
2	1	0	0	0	17.8701	-0.191359	-0.190889	0.00757892	2	-0.00010158	1.44673e-06
2	1	0	0	0	17.8901	-0.18936	-0.188883	0.00777547	2	-0.000101427	1.46865e-06
2	1	0	0	0	17.9101	-0.18736	-0.18688	0.00794521	2	-0.000101269	1.4848e-06
2	1	0	0	0	17.9301	-0.185361	-0.18488	0.00810387	2	-0.000101109	1.49825e-06
2	1	0	0	0	17.9501	-0.183362	-0.182867	0.00820769	2	-0.000100946	1.50091e-06
2	1	0	0	0	17.9701	-0.181363	-0.180872	0.00831203	2	-0.00010078	1.50341e-06
2	1	0	0	0	17.9901	-0.179364	-0.178883	0.00838852	2	-0.000100613	1.50056e-06
2	1	0	0	0	18.0101	-0.177365	-0.176879	0.00844804	2	-0.000100445	1.49428e-06
2	1	0	0	0	18.03	-0.175359	-0.174865	0.00851038	2	-0.000100276	1.48816e-06
2	1	0	1	0	18.0499	-0.173366	-0.172878	0.00848571	2	-0.000100107	1.46699e-06
2	1	0	1	0	18.0699	-0.171367	-0.170871	0.00849082	2	-9.99366e-05	1.45083e-06
2	1	0	1	0	18.0899	-0.169368	-0.168873	0.00846226	2	-9.9767e-05	1.42905e-06
2	1	0	1	0	18.1099	-0.167369	-0.16687	0.00843414	2	-9.95979e-05	1.40741e-06
2	1	0	1	0	18.1299	-0.16537	-0.164888	0.00838608	2	-9.94298e-05	1.38277e-06
2	1	0	1	0	18.1499	-0.16337	-0.162868	0.00830669	2	-9.92627e-05	1.35289e-06
2	1	0	1	0	18.1699	-0.161371	-0.160865	0.00824418	2	-9.90973e-05	1.3262e-06
2	1	0	1	0	18.1899	-0.159372	-0.158872	0.00814768	2	-9.89332e-05	1.29444e-06
2	1	0	1	0	18.2099	-0.157373	-0.156861	0.00804754	2	-9.8771e-05	1.26234e-06
2	1	0	1	0	18.2299	-0.155374	-0.154865	0.00796245	2	-9.86108e-05	1.23311e-06
2	1	0	1	0	18.2499	-0.153374	-0.152884	0.00785089	2	-9.84526e-05	1.20027e-06
2	1	0	1	0	18.2699	-0.151375	-0.15085	0.00775608	2	-9.82963e-05	1.17001e-06
2	1	0	1	0	18.2899	-0.149376	-0.14886	0.00763785	2	-9.81423e-05	1.13697e-06
2	1	0	1	0	18.3099	-0.147377	-0.146873	0.0075211	2	-9.79904e-05	1.10465e-06
2	1	0	1	0	18.3299	-0.145378	-0.144877	0.00741974	2	-9.7841e-05	1.07495e-06
2	1	0	1	0	18.3499	-0.143379	-0.142881	0.00729842	2	-9.76935e-05	1.0428e-06
2	1	0	1	0	18.3699	-0.141379	-0.140876	0.00720353	2	-9.75482e-05	1.0148e-06
2	1	0	1	0	18.3899	-0.13938	-0.138853	0.00709952	2	-9.74052e-05	9.85791e-07
2	1	0	1	0	18.4099	-0.137381	-0.136873	0.00698914	2	-9.72642e-05	9.56621e-07
2	1	0	1	0	18.4299	-0.135382	-0.134881	0.00688368	2	-9.71253e-05	9.2848e-07
2	1	0	1	0	18.4499	-0.133383	-0.132883	0.00676844	2	-9.69886e-05	8.99414e-07
2	1	0	1	0	18.4699	-0.131384	-0.130872	0.00668354	2	-9.68537e-05	8.74686e-07
2	1	0	1	0	18.4899	-0.129384	-0.128877	0.0065945	2	-9.67208e-05	8.49882e-07
2	1	0	1	0	18.5098	-0.127385	-0.126871	0.00652906	2	-9.65902e-05	8.28346e-07
2	1	0	0	0	18.5297	-0.125386	-0.124893	0.00640774	2	-9.64615e-05	8.00284e-07
2	1	0	0	0	18.5497	-0.123387	-0.122881	0.00633446	2	-9.63339e-05	7.78386e-07
2	1	0	0	0	18.5697	-0.121388	-0.120894	0.00624701	2	-9.62079e-05	7.55227e-07
2	1	0	0	0	18.5897	-0.119389	-0.118889	0.00617465	2	-9.60836e-05	7.341e-07
2	1	0	0	0	18.6097	-0.117389	-0.116886	0.00610396	2	-9.59607e-05	7.13465e-07
2	1	0	0	0	18.6297	-0.11539	-0.11489	0.00603192	2	-9.58393e-05	6.93007e-07
2	1	0	0	0	18.6497	-0.113391	-0.112895	0.00596042	2	-9.57193e-05	6.72901e-07
2	1	0	0	0	18.6697	-0.111392	-0.110887	0.00589693	2	-9.56006e-05	6.53896e-07
2	1	0	0	0	18.6897	-0.109393	-0.108878	0.00582735	2	-9.54831e-05	6.34473e-07
2	1	0	0	0	18.7097	-0.107394	-0.106886	0.00576889	2	-9.5367e-05	6.16614e-07
2	1	0	0	0	18.7297	-0.105394	-0.104892	0.00571952	2	-9.52521e-05	5.99931e-07
2	1	0	0	0	18.7497	-0.103395	-0.10289	0.00566529	2	-9.5138e-05	5.82901e-07
2	1	0	0	0	18.7697	-0.101396	-0.10089	0.00562545	2	-9.50251e-05	5.67549e-07
2	1	0	0	0	18.7897	-0.0993968	-0.0988861	0.00555505	2	-9.49131e-05	5.49317e-07
2	1	0	0	0	18.8097	-0.0973976	-0.0968909	0.00552324	2	-9.48021e-05	5.35152e-07
2	1	0	0	0	18.8297	-0.0953985	-0.0948839	0.00548811	2	-9.4692e-05	5.20733e-07
2	1	0	0	0	18.8497	-0.0933993	-0.0928968	0.0054275	2	-9.45828e-05	5.04197e-07
2	1	0	0	0	18.8697	-0.0914001	-0.0908782	0.00540361	2	-9.44743e-05	4.9107e-07
2	1	0	0	0	18.8897	-0.089401	-0.0888836	0.00535381	2	-9.43666e-05	4.75866e-07
2	1	0	0	0	18.9097	-0.0874018	-0.0868926	0.00532928	2	-9.42595e-05	4.63075e-07
2	1	0	0	0	18.9297	-0.0854026	-0.0848954	0.0052936	2	-9.41531e-05	4.49402e-07
2	1	0	0	0	18.9497	-0.0834034	-0.0829078	0.00526368	2	-9.40474e-05	4.364e-07
2	1	0	0	0	18.9697	-0.0814043	-0.0808962	0.00524927	2	-9.39422e-05	4.24646e-07
2	1	0	0	0	18.9896	-0.0794142	-0.0788974	0.00521096	2	-9.38382e-05	4.11131e-07
2	1	0	1	0	19.0095	-0.0774059	-0.0768939	0.00517426	2	-9.37345e-05	3.97869e-07
2	1	0	1	0	19.0295	-0.0754067	-0.0749101	0.00515032	2	-9.3631e-05	3.85811e-07
2	1	0	1	0	19.0495	-0.0734076	-0.0728911	0.00514256	2	-9.35279e-05	3.74846e-07
2	1	0	1	0	19.0695	-0.0714084	-0.0708975	0.00511207	2	-9.34252e-05	3.62433e-07
2	1	0	1	0	19.0895	-0.0694092	-0.0689305	0.00509775	2	-9.33231e-05	3.5139e-07
2	1	0	1	0	19.1095	-0.0674101	-0.0669155	0.00506763	2	-9.32213e-05	3.39103e-07
2	1	0	1	0	19.1295	-0.0654109	-0.0649241	0.00504935	2	-9.31199e-05	3.27824e-07
2	1	0	1	0	19.1495	-0.0634117	-0.0629102	0.00503168	2	-9.30187e-05	3.16544e-07
2	1	0	1	0	19.1695	-0.0614125	-0.0609247	0.00502003	2	-9.29178e-05	3.05844e-07
2	1	0	1	0	19.1895	-0.0594134	-0.0589027	0.00502509	2	-9.28171e-05	2.95991e-07
2	1	0	1	0	19.2095	-0.0574142	-0.0569081	0.0050081	2	-9.27168e-05	2.85001e-07
2	1	0	1	0	19.2295	-0.055415	-0.054902	0.00499725	2	-9.26168e-05	2.74359e-07
2	1	0	1	0	19.2495	-0.0534158	-0.0529231	0.00498806	2	-9.2517e-05	2.63984e-07
2	1	0	1	0	19.2695	-0.0514167	-0.0509113	0.0049568	2	-9.24173e-05	2.52357e-07
2	1	0	1	0	19.2895	-0.0494175	-0.0489165	0.00496018	2	-9.23179e-05	2.42635e-07
2	1	0	1	0	19.3095	-0.0474183	-0.0469142	0.00494958	2	-9.22186e-05	2.32206e-07
2	1	0	1	0	19.3295	-0.0454191	-0.0449232	0.00494028	2	-9.21194e-05	2.21933e-07
2	1	0	1	0	19.3495	-0.04342	-0.0429191	0.00493711	2	-9.20204e-05	2.11896e-07
2	1	0	1	0	19.3695	-0.0414208	-0.0409219	0.00493636	2	-9.19216e-05	2.02005e-07
2	1	0	1	0	19.3895	-0.0394216	-0.0389159	0.00493512	2	-9.18227e-05	1.92054e-07
2	1	0	1	0	19.4095	-0.0374225	-0.0369138	0.00493009	2	-9.17239e-05	1.81989e-07
2	1	0	1	0	19.4295	-0.0354233	-0.0349273	0.0049202	2	-9.16253e-05	1.71849e-07
2	1	0	1	0	19.4495	-0.0334241	-0.0329231	0.00492966	2	-9.15267e-05	1.623e-07
2	1	0	1	0	19.4695	-0.0314249	-0.0309226	0.00491366	2	-9.14282e-05	1.51943e-07
2	1	0	0	0	19.4893	-0.0294258	-0.0289443	0.00490708	2	-9.13305e-05	1.42032e-07
2	1	0	0	0	19.5093	-0.0274266	-0.0269295	0.00491189	2	-9.12319e-05	1.32275e-07
2	1	0	0	0	19.5293	-0.0254274	-0.0249385	0.00492848	2	-9.11334e-05	1.22909e-07
2	1	0	0	0	19.5493	-0.0234282	-0.0229278	0.00492532	2	-9.1035e-05	1.12927e-07
2	1	0	0	0	19.5693	-0.0214291	-0.0209321	0.00492663	2	-9.09365e-05	1.03125e-07
2	1	0	0	0	19.5893	-0.0194299	-0.0189377	0.00491155	2	-9.0838e-05	9.30135e-08
2	1	0	0	0	19.6093	-0.0174307	-0.0169376	0.00492281	2	-9.07395e-05	8.33807e-08
2	1	0	0	0	19.6293	-0.0154316	-0.0149267	0.00492607	2	-9.06409e-05	7.35298e-08
2	1	0	0	0	19.6493	-0.0134324	-0.0129424	0.00491688	2	-9.05423e-05	6.36364e-08
2	1	0	0	0	19.6693	-0.0114332	-0.0109304	0.00493514	2	-9.04436e-05	5.39433e-08
2	1	0	0	0	19.6893	-0.00943403	-0.00894283	0.00493273	2	-9.03448e-05	4.41125e-08
2	1	0	0	0	19.7093	-0.00743486	-0.00695479	0.00493074	2	-9.0246e-05	3.42922e-08
2	1	0	0	0	19.7293	-0.00543569	-0.00493877	0.00494942	2	-9.01471e-05	2.4444e-08
2	1	0	0	0	19.7493	-0.00343652	-0.00296323	0.00493367	2	-9.00482e-05	1.46196e-08
2	1	0	0	0	19.7693	-0.00143734	-0.000958442	0.00494142	2	-8.9949e-05	4.73607e-09
2	1	0	0	0	19.7893	0.00056183	0.00103893	0.00496176	2	-8.98497e-05	5.1549e-09
2	1	0	0	0	19.8093	0.002561	0.00305431	0.00496698	2	-8.97503e-05	1.51707e-08
2	1	0	0	0	19.8293	0.00456017	0.00505825	0.00497402	2	-8.96507e-05	2.51599e-08
2	1	0	0	0	19.8493	0.00655935	0.00705159	0.00498074	2	-8.95511e-05	3.51221e-08
2	1	0	0	0	19.8693	0.00855852	0.00904599	0.00498225	2	-8.94513e-05	4.50694e-08
2	1	0	0	0	19.8893	0.0105577	0.0110427	0.00499604	2	-8.93514e-05	5.51699e-08
2	1	0	0	0	19.9093	0.0125569	0.0130587	0.00498961	2	-8.92514e-05	6.5158e-08
2	1	0	0	0	19.9293	0.014556	0.0150669	0.00501627	2	-8.91511e-05	7.55798e-08
2	1	0	0	0	19.9493	0.0165552	0.0170416	0.00500561	2	-8.90507e-05	8.53036e-08
2	1	0	0	0	19.9587	0.017501	0.0180193	0.00505483	2	-8.90034e-05	9.10847e-08