File: TAP_Report/Data/MB_Suscept/6_bw_noanti_1_C01_2.mpt
EC-Lab ASCII FILE
Nb header lines : 56

Cyclic Voltammetry

Run on channel : 1 (SN 0696)
User :
Electrode connection : standard
Ewe ctrl range : min = -2.50 V, max = 2.50 V
Ewe,I filtering : 50 kHz
Safety Limits :
	Do not start on E overload
Channel : Floating
Acquisition started on : 09/12/2016 16:12:39
Saved on :
	File : 6_bw_noanti_1_C01.mpr
	Directory : \\userfs\st659\w2k\EC-Lab\Data\Meth_Blue 12-09-16\
	Host : 144.32.136.43
Device : SP-300 (SN 0182)
Address : USB
EC-Lab for windows v10.44 (software)
Internet server v10.44 (firmware)
Command interpretor v10.44 (firmware)
Electrode material :
Initial state :
Electrolyte :
Comments :
Cable : standard
Reference electrode : SCE Saturated Calomel Electrode (0.241 V)
Electrode surface area : 0.001 cm²
Characteristic mass : 0.001 g
Equivalent Weight : 0.000 g/eq.
Density : 0.000 g/cm3
Ei (V)              0.000
vs.                 Eoc
dE/dt               100.000
dE/dt unit          mV/s
E1 (V)              0.100
vs.                 Ref
Step percent        50
N                   10
E range min (V)     -2.500
E range max (V)     2.500
I Range             Auto
I Range min         Unset
I Range max         Unset
I Range init        Unset
Bandwidth           8
E2 (V)              -0.400
vs.                 Ref
nc cycles           2
Reverse Scan        1
Ef (V)              0.000
vs.                 Eoc

mode	ox/red	error	control changes	counter inc.	time/s	control/V	Ewe/V	<I>/mA	cycle number	(Q-Qo)/C	P/W
2	1	0	1	1	9.965	0.0131975	0.0136844	0.00470472	2	-3.67524e-05	6.4381e-08
2	1	0	0	1	9.9805	0.0147468	0.0152527	0.00465047	2	-3.66764e-05	7.09323e-08
2	1	0	0	1	10.0005	0.016746	0.0172473	0.00461374	2	-3.65785e-05	7.95746e-08
2	1	0	0	1	10.0205	0.0187452	0.0192563	0.00463303	2	-3.64805e-05	8.92153e-08
2	1	0	0	1	10.0405	0.0207444	0.0212384	0.00462331	2	-3.63826e-05	9.81919e-08
2	1	0	0	1	10.0605	0.0227436	0.0232252	0.00462829	2	-3.62847e-05	1.07493e-07
2	1	0	0	1	10.0805	0.0247427	0.0252289	0.0046469	2	-3.61865e-05	1.17236e-07
2	1	0	0	1	10.1005	0.0267419	0.0272288	0.00465531	2	-3.60884e-05	1.26759e-07
2	1	0	0	1	10.1205	0.0287411	0.029212	0.00464396	2	-3.59903e-05	1.35659e-07
2	1	0	0	1	10.1405	0.0307403	0.0312234	0.00466668	2	-3.58919e-05	1.4571e-07
2	1	0	0	1	10.1605	0.0327395	0.0332169	0.00467895	2	-3.57936e-05	1.5542e-07
2	1	0	0	1	10.1805	0.0347386	0.0352302	0.00466884	2	-3.56951e-05	1.64484e-07
2	1	0	0	1	10.2005	0.0367378	0.0372218	0.00468519	2	-3.55964e-05	1.74391e-07
2	1	0	0	1	10.2205	0.038737	0.0392171	0.00466535	2	-3.54977e-05	1.82961e-07
2	1	0	0	1	10.2405	0.0407362	0.0412276	0.00471381	2	-3.53987e-05	1.94339e-07
2	1	0	0	1	10.2605	0.0427354	0.0432108	0.00470941	2	-3.52997e-05	2.03497e-07
2	1	0	0	1	10.2805	0.0447345	0.0452255	0.004672	2	-3.52005e-05	2.11294e-07
2	1	0	0	1	10.3005	0.0467337	0.0472193	0.00471437	2	-3.51012e-05	2.22609e-07
2	1	0	0	1	10.3205	0.0487329	0.0492111	0.00469081	2	-3.50019e-05	2.3084e-07
2	1	0	0	1	10.3405	0.0507321	0.0512225	0.00471983	2	-3.49021e-05	2.41762e-07
2	1	0	0	1	10.3605	0.0527313	0.0532173	0.00472139	2	-3.48024e-05	2.5126e-07
2	1	0	0	1	10.3805	0.0547304	0.0552026	0.00474437	2	-3.47024e-05	2.61902e-07
2	1	0	0	1	10.4005	0.0567296	0.0572138	0.0047494	2	-3.46021e-05	2.71731e-07
2	1	0	0	1	10.4205	0.0587288	0.0592158	0.0047654	2	-3.45017e-05	2.82187e-07
2	1	0	0	1	10.4405	0.060728	0.0612134	0.00476847	2	-3.44011e-05	2.91894e-07
2	1	0	1	1	10.4603	0.0627272	0.0632084	0.00478285	2	-3.4301e-05	3.02316e-07
2	1	0	1	1	10.4803	0.0647263	0.0652136	0.00481575	2	-3.41998e-05	3.14052e-07
2	1	0	1	1	10.5003	0.0667255	0.0672211	0.00480806	2	-3.40984e-05	3.23204e-07
2	1	0	1	1	10.5203	0.0687247	0.0692109	0.00484607	2	-3.39968e-05	3.35401e-07
2	1	0	1	1	10.5403	0.0707239	0.0712119	0.0048718	2	-3.3895e-05	3.4693e-07
2	1	0	1	1	10.5603	0.0727231	0.0732088	0.00482542	2	-3.37929e-05	3.53263e-07
2	1	0	1	1	10.5803	0.0747222	0.0752106	0.00489456	2	-3.36904e-05	3.68123e-07
2	1	0	1	1	10.6003	0.0767214	0.0772069	0.00489143	2	-3.35877e-05	3.77653e-07
2	1	0	1	1	10.6203	0.0787206	0.0792098	0.00489327	2	-3.34848e-05	3.87595e-07
2	1	0	1	1	10.6403	0.0807198	0.0812046	0.00493074	2	-3.33816e-05	4.00399e-07
2	1	0	1	1	10.6603	0.082719	0.0831939	0.00493388	2	-3.32781e-05	4.10469e-07
2	1	0	1	1	10.6803	0.0847181	0.0851888	0.004944	2	-3.31742e-05	4.21173e-07
2	1	0	1	1	10.7003	0.0867173	0.0871963	0.00496413	2	-3.307e-05	4.32854e-07
2	1	0	1	1	10.7203	0.0887165	0.089192	0.00495662	2	-3.29653e-05	4.42091e-07
2	1	0	1	1	10.7403	0.0907157	0.0912057	0.00502311	2	-3.28603e-05	4.58136e-07
2	1	0	1	1	10.7603	0.0927149	0.0932126	0.0050246	2	-3.27549e-05	4.68356e-07
2	1	0	1	1	10.7803	0.094714	0.0951921	0.0050292	2	-3.26491e-05	4.78741e-07
2	1	0	1	1	10.8003	0.0967132	0.0971908	0.00506309	2	-3.2543e-05	4.92086e-07
2	1	0	1	1	10.8203	0.0987124	0.0991992	0.00507602	2	-3.24364e-05	5.03537e-07
2	0	0	0	1	10.8332	0.0999619	0.100424	0.00479778	2	-3.23678e-05	4.81812e-07
2	0	0	1	1	10.8487	0.0984125	0.0988407	0.00251363	2	-3.23264e-05	2.48449e-07
2	0	0	1	1	10.8687	0.0964133	0.0968442	0.00192678	2	-3.22877e-05	1.86598e-07
2	0	0	1	1	10.9042	0.0928648	0.0932799	0.00122285	2	-3.22361e-05	1.14067e-07
2	0	0	0	1	10.9397	0.0893163	0.0897177	0.000691479	2	-3.21967e-05	6.20379e-08
2	0	0	0	1	10.9597	0.0873171	0.0877116	0.000512265	2	-3.2185e-05	4.49316e-08
2	0	0	0	1	10.9797	0.0853179	0.085728	0.000368224	2	-3.21765e-05	3.15671e-08
2	0	0	0	1	10.9997	0.0833187	0.0837162	0.000235318	2	-3.21706e-05	1.96999e-08
2	0	0	0	1	11.0197	0.0813195	0.0817199	9.73344e-05	2	-3.21674e-05	7.95416e-09
2	0	0	0	1	11.0397	0.0793204	0.079709	-2.02767e-06	2	-3.21666e-05	1.61624e-10
2	0	0	0	1	11.0597	0.0773212	0.077743	-7.92808e-05	2	-3.21677e-05	6.16353e-09
2	0	0	0	1	11.0797	0.075322	0.0757185	-0.000188411	2	-3.21707e-05	1.42662e-08
2	0	0	0	1	11.0997	0.0733228	0.0737381	-0.00026313	2	-3.21755e-05	1.94027e-08
2	0	0	0	1	11.1197	0.0713236	0.071728	-0.000345805	2	-3.21819e-05	2.48039e-08
2	0	0	0	1	11.1397	0.0693245	0.069734	-0.00043066	2	-3.219e-05	3.00317e-08
2	0	0	0	1	11.1597	0.0673253	0.0677231	-0.000508048	2	-3.21995e-05	3.44066e-08
2	0	0	0	1	11.1797	0.0653261	0.0657232	-0.000584917	2	-3.22103e-05	3.84426e-08
2	0	0	0	1	11.1997	0.0633269	0.0637192	-0.000621038	2	-3.22225e-05	3.95721e-08
2	0	0	0	1	11.2196	0.0613209	0.0617225	-0.000709571	2	-3.22359e-05	4.37964e-08
2	0	0	1	1	11.2395	0.0593286	0.0597376	-0.000738226	2	-3.22504e-05	4.40999e-08
2	0	0	1	1	11.2595	0.0573294	0.0577273	-0.000787159	2	-3.22659e-05	4.54406e-08
2	0	0	1	1	11.2795	0.0553302	0.0557253	-0.000854628	2	-3.22825e-05	4.76244e-08
2	0	0	1	1	11.2995	0.053331	0.0537441	-0.000884858	2	-3.23001e-05	4.75559e-08
2	0	0	1	1	11.3195	0.0513318	0.0517478	-0.000945176	2	-3.23186e-05	4.89108e-08
2	0	0	1	1	11.3395	0.0493327	0.0497574	-0.000995862	2	-3.2338e-05	4.95515e-08
2	0	0	1	1	11.3595	0.0473335	0.047746	-0.00102529	2	-3.23582e-05	4.89535e-08
2	0	0	1	1	11.3795	0.0453343	0.0457643	-0.0010571	2	-3.23794e-05	4.83773e-08
2	0	0	1	1	11.3995	0.0433351	0.0437377	-0.00112409	2	-3.24013e-05	4.91651e-08
2	0	0	1	1	11.4195	0.0413359	0.0417505	-0.00114871	2	-3.24241e-05	4.79593e-08
2	0	0	1	1	11.4395	0.0393368	0.0397269	-0.00119871	2	-3.24476e-05	4.76208e-08
2	0	0	1	1	11.4595	0.0373376	0.0377253	-0.0012251	2	-3.24719e-05	4.62171e-08
2	0	0	1	1	11.4795	0.0353384	0.0357309	-0.00126088	2	-3.24968e-05	4.50522e-08
2	0	0	1	1	11.4995	0.0333392	0.0337337	-0.00129624	2	-3.25224e-05	4.37271e-08
2	0	0	1	1	11.5195	0.03134	0.0317491	-0.0013205	2	-3.25485e-05	4.19247e-08
2	0	0	1	1	11.5395	0.0293409	0.0297428	-0.00134483	2	-3.25755e-05	3.9999e-08
2	0	0	1	1	11.5595	0.0273417	0.0277384	-0.00139067	2	-3.26029e-05	3.8575e-08
2	0	0	1	1	11.5795	0.0253425	0.0257491	-0.00139826	2	-3.26309e-05	3.6004e-08
2	0	0	1	1	11.5995	0.0233433	0.0237556	-0.00144377	2	-3.26595e-05	3.42975e-08
2	0	0	1	1	11.6195	0.0213441	0.0217516	-0.00146359	2	-3.26889e-05	3.18355e-08
2	0	0	1	1	11.6395	0.019345	0.0197568	-0.00150478	2	-3.27187e-05	2.97296e-08
2	0	0	1	1	11.6595	0.0173458	0.0177605	-0.00152571	2	-3.27491e-05	2.70973e-08
2	0	0	1	1	11.6795	0.0153466	0.0157676	-0.00154562	2	-3.27801e-05	2.43706e-08
2	0	0	1	1	11.6995	0.0133474	0.0137636	-0.00157163	2	-3.28117e-05	2.16314e-08
2	0	0	0	1	11.7193	0.0113482	0.0117508	-0.00162685	2	-3.28437e-05	1.91168e-08
2	0	0	0	1	11.7393	0.00934906	0.00976041	-0.00164068	2	-3.28763e-05	1.60137e-08
2	0	0	0	1	11.7593	0.00734988	0.00774821	-0.00165399	2	-3.29094e-05	1.28155e-08
2	0	0	0	1	11.7793	0.0053507	0.00574978	-0.00168149	2	-3.29429e-05	9.66819e-09
2	0	0	0	1	11.7993	0.00335152	0.00374648	-0.0017075	2	-3.2977e-05	6.39712e-09
2	0	0	0	1	11.8193	0.00135234	0.00175462	-0.00174439	2	-3.30116e-05	3.06074e-09
2	0	0	0	1	11.8393	-0.000646836	-0.000244867	-0.00176381	2	-3.30467e-05	4.31899e-10
2	0	0	0	1	11.8593	-0.00264602	-0.00226873	-0.00178385	2	-3.30822e-05	4.04708e-09
2	0	0	0	1	11.8793	-0.0046452	-0.004243	-0.00180027	2	-3.31181e-05	7.63855e-09
2	0	0	0	1	11.8993	-0.00664438	-0.00623125	-0.00181355	2	-3.31544e-05	1.13007e-08
2	0	0	0	1	11.9193	-0.00864356	-0.00824197	-0.00184996	2	-3.31914e-05	1.52473e-08
2	0	0	0	1	11.9393	-0.0106427	-0.010247	-0.00187698	2	-3.32288e-05	1.92334e-08
2	0	0	0	1	11.9593	-0.0126419	-0.0122509	-0.00188672	2	-3.32667e-05	2.31141e-08
2	0	0	0	1	11.9793	-0.0146411	-0.014254	-0.00192003	2	-3.33049e-05	2.73681e-08
2	0	0	0	1	11.9993	-0.0166403	-0.0162529	-0.00192689	2	-3.33436e-05	3.13174e-08
2	0	0	0	1	12.0193	-0.0186395	-0.0182521	-0.00195007	2	-3.33827e-05	3.55929e-08
2	0	0	0	1	12.0393	-0.0206386	-0.0202438	-0.00197945	2	-3.34221e-05	4.00716e-08
2	0	0	0	1	12.0593	-0.0226378	-0.022253	-0.00200082	2	-3.34622e-05	4.45242e-08
2	0	0	0	1	12.0793	-0.024637	-0.0242406	-0.00201271	2	-3.35026e-05	4.87895e-08
2	0	0	0	1	12.0993	-0.0266362	-0.0262444	-0.00203057	2	-3.35433e-05	5.3291e-08
2	0	0	0	1	12.1193	-0.0286354	-0.0282485	-0.0020588	2	-3.35846e-05	5.81582e-08
2	0	0	0	1	12.1393	-0.0306345	-0.0302338	-0.00208163	2	-3.36262e-05	6.29356e-08
2	0	0	0	1	12.1593	-0.0326337	-0.032228	-0.00210061	2	-3.36683e-05	6.76985e-08
2	0	0	0	1	12.1793	-0.0346329	-0.0342305	-0.00212884	2	-3.37108e-05	7.28712e-08
2	0	0	1	1	12.1991	-0.0366321	-0.0362282	-0.00216686	2	-3.37536e-05	7.85014e-08
2	0	0	1	1	12.2191	-0.0386313	-0.038232	-0.00216755	2	-3.37971e-05	8.28695e-08
2	0	0	1	1	12.2391	-0.0406304	-0.040238	-0.00218719	2	-3.38409e-05	8.80084e-08
2	0	0	1	1	12.2591	-0.0426296	-0.0422379	-0.0022256	2	-3.38852e-05	9.40048e-08
2	0	0	1	1	12.2791	-0.0446288	-0.0442251	-0.00223306	2	-3.39299e-05	9.87574e-08
2	0	0	1	1	12.2991	-0.046628	-0.0462007	-0.0022589	2	-3.39749e-05	1.04363e-07
2	0	0	1	1	12.3191	-0.0486272	-0.0482194	-0.00226759	2	-3.40204e-05	1.09342e-07
2	0	0	1	1	12.3391	-0.0506263	-0.0502283	-0.0022887	2	-3.40663e-05	1.14957e-07
2	0	0	1	1	12.3591	-0.0526255	-0.0522044	-0.00231539	2	-3.41126e-05	1.20874e-07
2	0	0	1	1	12.3791	-0.0546247	-0.0542224	-0.0023385	2	-3.41594e-05	1.26799e-07
2	0	0	1	1	12.3991	-0.0566239	-0.0562348	-0.00235716	2	-3.42067e-05	1.32554e-07
2	0	0	1	1	12.4191	-0.0586231	-0.0582264	-0.00238614	2	-3.42542e-05	1.38936e-07
2	0	0	1	1	12.4391	-0.0606223	-0.0602319	-0.00241151	2	-3.43022e-05	1.4525e-07
2	0	0	1	1	12.4591	-0.0626214	-0.0622246	-0.00245251	2	-3.43508e-05	1.52606e-07
2	0	0	1	1	12.4791	-0.0646206	-0.0642202	-0.00244256	2	-3.43997e-05	1.56862e-07
2	0	0	1	1	12.4991	-0.0666198	-0.0662382	-0.00247638	2	-3.44491e-05	1.64031e-07
2	0	0	1	1	12.5191	-0.068619	-0.0682341	-0.00249138	2	-3.44989e-05	1.69997e-07
2	0	0	1	1	12.5391	-0.0706182	-0.0702219	-0.00250237	2	-3.45491e-05	1.75721e-07
2	0	0	1	1	12.5591	-0.0726173	-0.0722358	-0.00255453	2	-3.45998e-05	1.84529e-07
2	0	0	1	1	12.5791	-0.0746165	-0.0742166	-0.00256555	2	-3.4651e-05	1.90407e-07
2	0	0	1	1	12.5991	-0.0766157	-0.0762176	-0.00259227	2	-3.47025e-05	1.97577e-07
2	0	0	1	1	12.6191	-0.0786149	-0.0782145	-0.0026013	2	-3.47546e-05	2.03459e-07
2	0	0	1	1	12.6391	-0.0806141	-0.0802146	-0.0026229	2	-3.48073e-05	2.10395e-07
2	0	0	1	1	12.6591	-0.0826132	-0.0822163	-0.0026706	2	-3.48604e-05	2.19567e-07
2	0	0	1	1	12.679	-0.0846102	-0.0842096	-0.00272668	2	-3.49137e-05	2.29612e-07
2	0	0	0	1	12.6989	-0.0866116	-0.0861991	-0.0027175	2	-3.49678e-05	2.34246e-07
2	0	0	0	1	12.7189	-0.0886108	-0.0882116	-0.00274724	2	-3.50226e-05	2.42338e-07
2	0	0	0	1	12.7389	-0.09061	-0.0902199	-0.0027626	2	-3.50779e-05	2.49242e-07
2	0	0	0	1	12.7589	-0.0926091	-0.0922294	-0.00279434	2	-3.51338e-05	2.5772e-07
2	0	0	0	1	12.7789	-0.0946083	-0.094231	-0.00281422	2	-3.51901e-05	2.65187e-07
2	0	0	0	1	12.7989	-0.0966075	-0.096222	-0.00284838	2	-3.5247e-05	2.74077e-07
2	0	0	0	1	12.8189	-0.0986067	-0.0982132	-0.00288785	2	-3.53046e-05	2.83625e-07
2	0	0	0	1	12.8389	-0.100606	-0.100208	-0.00292257	2	-3.53629e-05	2.92866e-07
2	0	0	0	1	12.8589	-0.102605	-0.102224	-0.0029471	2	-3.5422e-05	3.01265e-07
2	0	0	0	1	12.8789	-0.104604	-0.104234	-0.00299626	2	-3.54817e-05	3.12311e-07
2	0	0	0	1	12.8989	-0.106603	-0.106224	-0.00303012	2	-3.55421e-05	3.21871e-07
2	0	0	0	1	12.9189	-0.108603	-0.108219	-0.00307166	2	-3.56031e-05	3.32411e-07
2	0	0	0	1	12.9389	-0.110602	-0.110208	-0.00312659	2	-3.56651e-05	3.44577e-07
2	0	0	0	1	12.9589	-0.112601	-0.112212	-0.0031596	2	-3.5728e-05	3.54546e-07
2	0	0	0	1	12.9789	-0.1146	-0.114233	-0.00320698	2	-3.57919e-05	3.66344e-07
2	0	0	0	1	12.9989	-0.116599	-0.116218	-0.00326166	2	-3.58566e-05	3.79064e-07
2	0	0	0	1	13.0189	-0.118598	-0.118206	-0.00330904	2	-3.59225e-05	3.91149e-07
2	0	0	0	1	13.0389	-0.120598	-0.12021	-0.00337521	2	-3.59895e-05	4.05733e-07
2	0	0	0	1	13.0589	-0.122597	-0.122213	-0.0034252	2	-3.60577e-05	4.18605e-07
2	0	0	0	1	13.0789	-0.124596	-0.124202	-0.00351399	2	-3.61271e-05	4.36443e-07
2	0	0	0	1	13.0989	-0.126595	-0.126211	-0.00356217	2	-3.61978e-05	4.49586e-07
2	0	0	0	1	13.1189	-0.128594	-0.128206	-0.00363046	2	-3.62702e-05	4.65447e-07
2	0	0	0	1	13.1389	-0.130594	-0.130208	-0.00374073	2	-3.63441e-05	4.87074e-07
2	0	0	0	1	13.1589	-0.132593	-0.132206	-0.00381936	2	-3.64197e-05	5.0494e-07
2	0	0	1	1	13.1787	-0.134592	-0.134194	-0.00391732	2	-3.64967e-05	5.25683e-07
2	0	0	1	1	13.1987	-0.136591	-0.13618	-0.00402647	2	-3.65762e-05	5.48326e-07
2	0	0	1	1	13.2187	-0.13859	-0.138198	-0.00413834	2	-3.6658e-05	5.71909e-07
2	0	0	1	1	13.2387	-0.140589	-0.140207	-0.00425059	2	-3.67421e-05	5.95961e-07
2	0	0	1	1	13.2587	-0.142589	-0.142204	-0.00438616	2	-3.68286e-05	6.23729e-07
2	0	0	1	1	13.2787	-0.144588	-0.144205	-0.00451905	2	-3.69179e-05	6.51671e-07
2	0	0	1	1	13.2987	-0.146587	-0.146204	-0.00467199	2	-3.701e-05	6.83065e-07
2	0	0	1	1	13.3187	-0.148586	-0.148199	-0.00483189	2	-3.71053e-05	7.16083e-07
2	0	0	1	1	13.3387	-0.150585	-0.150194	-0.00501685	2	-3.7204e-05	7.53501e-07
2	0	0	1	1	13.3587	-0.152585	-0.152203	-0.00518646	2	-3.73063e-05	7.89397e-07
2	0	0	1	1	13.3787	-0.154584	-0.154196	-0.00539223	2	-3.74123e-05	8.31458e-07
2	0	0	1	1	13.3987	-0.156583	-0.156199	-0.00561137	2	-3.75225e-05	8.76489e-07
2	0	0	1	1	13.4187	-0.158582	-0.158199	-0.00582428	2	-3.7637e-05	9.21397e-07
2	0	0	1	1	13.4387	-0.160581	-0.160188	-0.00605798	2	-3.77561e-05	9.70418e-07
2	0	0	1	1	13.4587	-0.16258	-0.162183	-0.00631604	2	-3.788e-05	1.02436e-06
2	0	0	1	1	13.4787	-0.16458	-0.164186	-0.00658263	2	-3.80092e-05	1.08077e-06
2	0	0	1	1	13.4987	-0.166579	-0.166204	-0.00685006	2	-3.81437e-05	1.13851e-06
2	0	0	1	1	13.5187	-0.168578	-0.168219	-0.0071419	2	-3.82838e-05	1.20141e-06
2	0	0	1	1	13.5387	-0.170577	-0.170215	-0.00742725	2	-3.84297e-05	1.26423e-06
2	0	0	1	1	13.5587	-0.172576	-0.172218	-0.00772727	2	-3.85813e-05	1.33078e-06
2	0	0	1	1	13.5787	-0.174576	-0.174196	-0.00804551	2	-3.87392e-05	1.4015e-06
2	0	0	1	1	13.5987	-0.176575	-0.17619	-0.0083409	2	-3.89032e-05	1.46958e-06
2	0	0	1	1	13.6187	-0.178574	-0.178198	-0.00865728	2	-3.90735e-05	1.54271e-06
2	0	0	1	1	13.6387	-0.180573	-0.180192	-0.00897249	2	-3.92502e-05	1.61677e-06
2	0	0	1	1	13.6586	-0.182579	-0.182209	-0.00933522	2	-3.94325e-05	1.70096e-06
2	0	0	0	1	13.6785	-0.184571	-0.184193	-0.00960843	2	-3.96211e-05	1.7698e-06
2	0	0	0	1	13.6985	-0.186571	-0.186197	-0.00992429	2	-3.98168e-05	1.84787e-06
2	0	0	0	1	13.734	-0.190119	-0.189748	-0.0103382	2	-4.01786e-05	1.96166e-06
2	0	0	1	1	13.7695	-0.193668	-0.193277	-0.0106886	2	-4.0553e-05	2.06585e-06
2	0	0	1	1	13.7895	-0.195667	-0.195268	-0.0109584	2	-4.07747e-05	2.13982e-06
2	0	0	1	1	13.8095	-0.197666	-0.197281	-0.0112113	2	-4.10017e-05	2.21178e-06
2	0	0	1	1	13.8295	-0.199665	-0.199252	-0.0114484	2	-4.12337e-05	2.28111e-06
2	0	0	1	1	13.8495	-0.201664	-0.201278	-0.0117079	2	-4.14706e-05	2.35654e-06
2	0	0	1	1	13.8695	-0.203664	-0.203276	-0.011923	2	-4.17119e-05	2.42365e-06
2	0	0	1	1	13.8895	-0.205663	-0.205268	-0.012133	2	-4.19574e-05	2.49051e-06
2	0	0	1	1	13.9095	-0.207662	-0.207286	-0.0123116	2	-4.22069e-05	2.55201e-06
2	0	0	1	1	13.9295	-0.209661	-0.209281	-0.0124703	2	-4.24597e-05	2.6098e-06
2	0	0	1	1	13.9495	-0.21166	-0.211262	-0.0126369	2	-4.27159e-05	2.66969e-06
2	0	0	1	1	13.9695	-0.21366	-0.213265	-0.0128341	2	-4.29751e-05	2.73707e-06
2	0	0	1	1	13.9895	-0.215659	-0.215268	-0.0129254	2	-4.32371e-05	2.78244e-06
2	0	0	1	1	14.0095	-0.217658	-0.217294	-0.0130282	2	-4.35018e-05	2.83096e-06
2	0	0	1	1	14.0295	-0.219657	-0.219263	-0.0131412	2	-4.37684e-05	2.88138e-06
2	0	0	1	1	14.0495	-0.221656	-0.221276	-0.0132219	2	-4.40372e-05	2.92569e-06
2	0	0	1	1	14.0695	-0.223655	-0.223258	-0.0132908	2	-4.43075e-05	2.96729e-06
2	0	0	1	1	14.0895	-0.225655	-0.225266	-0.0133957	2	-4.45795e-05	3.01759e-06
2	0	0	1	1	14.1095	-0.227654	-0.22728	-0.0134368	2	-4.48529e-05	3.05391e-06
2	0	0	1	1	14.1295	-0.229653	-0.229272	-0.0134787	2	-4.51273e-05	3.09028e-06
2	0	0	0	1	14.1493	-0.231652	-0.231258	-0.0135538	2	-4.54001e-05	3.13443e-06
2	0	0	0	1	14.1693	-0.233651	-0.233257	-0.0136015	2	-4.56765e-05	3.17263e-06
2	0	0	0	1	14.1893	-0.23565	-0.235266	-0.0135581	2	-4.59535e-05	3.18975e-06
2	0	0	0	1	14.2093	-0.23765	-0.237254	-0.0136232	2	-4.6231e-05	3.23216e-06
2	0	0	0	1	14.2293	-0.239649	-0.239256	-0.0136533	2	-4.65089e-05	3.26663e-06
2	0	0	0	1	14.2493	-0.241648	-0.241264	-0.0136373	2	-4.67872e-05	3.29018e-06
2	0	0	0	1	14.2693	-0.243647	-0.243253	-0.0136976	2	-4.70656e-05	3.33199e-06
2	0	0	0	1	14.2893	-0.245646	-0.245268	-0.0136718	2	-4.73442e-05	3.35326e-06
2	0	0	0	1	14.3093	-0.247646	-0.247252	-0.0136584	2	-4.76227e-05	3.37707e-06
2	0	0	0	1	14.3293	-0.249645	-0.249259	-0.0136429	2	-4.79011e-05	3.40062e-06
2	0	0	0	1	14.3493	-0.251644	-0.251246	-0.0136732	2	-4.81795e-05	3.43533e-06
2	0	0	0	1	14.3693	-0.253643	-0.253242	-0.0136483	2	-4.84577e-05	3.45632e-06
2	0	0	0	1	14.3893	-0.255642	-0.255256	-0.0136283	2	-4.87358e-05	3.47872e-06
2	0	0	0	1	14.4093	-0.257641	-0.257252	-0.0136643	2	-4.90135e-05	3.51515e-06
2	0	0	0	1	14.4293	-0.259641	-0.259252	-0.0136357	2	-4.9291e-05	3.53509e-06
2	0	0	0	1	14.4493	-0.26164	-0.261251	-0.0135886	2	-4.95682e-05	3.55003e-06
2	0	0	0	1	14.4693	-0.263639	-0.263247	-0.0135338	2	-4.98449e-05	3.56274e-06
2	0	0	0	1	14.4893	-0.265638	-0.265279	-0.013567	2	-5.01215e-05	3.59904e-06
2	0	0	0	1	14.5093	-0.267637	-0.267246	-0.0135759	2	-5.03977e-05	3.62811e-06
2	0	0	0	1	14.5293	-0.269637	-0.26925	-0.0135226	2	-5.06737e-05	3.64096e-06
2	0	0	0	1	14.5493	-0.271636	-0.271258	-0.0135123	2	-5.09492e-05	3.66532e-06
2	0	0	0	1	14.5693	-0.273635	-0.273253	-0.0135067	2	-5.12244e-05	3.69076e-06
2	0	0	0	1	14.5893	-0.275634	-0.275243	-0.0135207	2	-5.14992e-05	3.72148e-06
2	0	0	0	1	14.6093	-0.277633	-0.277242	-0.0134921	2	-5.17739e-05	3.74059e-06
2	0	0	0	1	14.6292	-0.279626	-0.279241	-0.0135001	2	-5.20469e-05	3.76977e-06
2	0	0	1	1	14.6491	-0.281632	-0.281251	-0.0134451	2	-5.23196e-05	3.78145e-06
2	0	0	1	1	14.6691	-0.283631	-0.283246	-0.0134279	2	-5.25935e-05	3.80339e-06
2	0	0	1	1	14.6891	-0.28563	-0.285244	-0.0134327	2	-5.28669e-05	3.83159e-06
2	0	0	1	1	14.7091	-0.287629	-0.28722	-0.0134184	2	-5.31402e-05	3.85403e-06
2	0	0	1	1	14.7291	-0.289628	-0.289219	-0.0134025	2	-5.34134e-05	3.87626e-06
2	0	0	1	1	14.7491	-0.291628	-0.2912	-0.0133772	2	-5.36864e-05	3.89543e-06
2	0	0	1	1	14.7691	-0.293627	-0.293233	-0.0134409	2	-5.39594e-05	3.94132e-06
2	0	0	1	1	14.7891	-0.295626	-0.295231	-0.0133782	2	-5.42321e-05	3.94967e-06
2	0	0	1	1	14.8091	-0.297625	-0.297215	-0.0133581	2	-5.45051e-05	3.97024e-06
2	0	0	1	1	14.8291	-0.299624	-0.299233	-0.0133761	2	-5.47779e-05	4.00258e-06
2	0	0	1	1	14.8491	-0.301623	-0.301221	-0.0133908	2	-5.50506e-05	4.03359e-06
2	0	0	1	1	14.8691	-0.303623	-0.30324	-0.0133824	2	-5.53235e-05	4.05807e-06
2	0	0	1	1	14.8891	-0.305622	-0.305236	-0.0134028	2	-5.55966e-05	4.09104e-06
2	0	0	1	1	14.9091	-0.307621	-0.307243	-0.0133973	2	-5.58698e-05	4.11623e-06
2	0	0	1	1	14.9291	-0.30962	-0.309237	-0.0134049	2	-5.61432e-05	4.14531e-06
2	0	0	1	1	14.9491	-0.311619	-0.311236	-0.0134158	2	-5.64169e-05	4.17548e-06
2	0	0	1	1	14.9691	-0.313619	-0.313237	-0.0134355	2	-5.66905e-05	4.20849e-06
2	0	0	1	1	14.9891	-0.315618	-0.315241	-0.0134634	2	-5.69648e-05	4.2442e-06
2	0	0	1	1	15.0091	-0.317617	-0.317237	-0.0134892	2	-5.72393e-05	4.27927e-06
2	0	0	1	1	15.0291	-0.319616	-0.319245	-0.0135107	2	-5.75143e-05	4.31322e-06
2	0	0	1	1	15.0491	-0.321615	-0.321243	-0.0135133	2	-5.77898e-05	4.34106e-06
2	0	0	1	1	15.0691	-0.323614	-0.323236	-0.0135262	2	-5.80656e-05	4.37215e-06
2	0	0	1	1	15.0891	-0.325614	-0.325216	-0.0135562	2	-5.83419e-05	4.4087e-06
2	0	0	1	1	15.1091	-0.327613	-0.327232	-0.0136154	2	-5.86188e-05	4.45538e-06
2	0	0	0	1	15.1289	-0.329612	-0.329238	-0.0136579	2	-5.8894e-05	4.49669e-06
2	0	0	0	1	15.1489	-0.331611	-0.331217	-0.0136719	2	-5.91722e-05	4.52836e-06
2	0	0	0	1	15.1689	-0.33361	-0.333218	-0.0136798	2	-5.94512e-05	4.55835e-06
2	0	0	0	1	15.1889	-0.33561	-0.33522	-0.0137538	2	-5.97309e-05	4.61055e-06
2	0	0	0	1	15.2089	-0.337609	-0.337212	-0.0137759	2	-6.00113e-05	4.64541e-06
2	0	0	0	1	15.2289	-0.339608	-0.339203	-0.013826	2	-6.02925e-05	4.68982e-06
2	0	0	0	1	15.2489	-0.341607	-0.341215	-0.0138989	2	-6.05748e-05	4.74253e-06
2	0	0	0	1	15.2689	-0.343606	-0.343217	-0.0139412	2	-6.08579e-05	4.78486e-06
2	0	0	0	1	15.2889	-0.345605	-0.34523	-0.0139685	2	-6.1142e-05	4.82236e-06
2	0	0	0	1	15.3089	-0.347605	-0.347221	-0.0140176	2	-6.14272e-05	4.8672e-06
2	0	0	0	1	15.3289	-0.349604	-0.34921	-0.0140754	2	-6.17133e-05	4.91528e-06
2	0	0	0	1	15.3489	-0.351603	-0.351224	-0.0141358	2	-6.20005e-05	4.96483e-06
2	0	0	0	1	15.3689	-0.353602	-0.353204	-0.0141839	2	-6.22888e-05	5.00982e-06
2	0	0	0	1	15.3889	-0.355601	-0.355211	-0.0142377	2	-6.25783e-05	5.0574e-06
2	0	0	0	1	15.4089	-0.357601	-0.35721	-0.0143382	2	-6.28691e-05	5.12174e-06
2	0	0	0	1	15.4289	-0.3596	-0.359219	-0.0143783	2	-6.31612e-05	5.16496e-06
2	0	0	0	1	15.4489	-0.361599	-0.361196	-0.0144717	2	-6.34547e-05	5.22713e-06
2	0	0	0	1	15.4689	-0.363598	-0.363207	-0.0145153	2	-6.37493e-05	5.27207e-06
2	0	0	0	1	15.4889	-0.365597	-0.365206	-0.0145728	2	-6.40454e-05	5.32209e-06
2	0	0	0	1	15.5089	-0.367596	-0.367215	-0.0147104	2	-6.4343e-05	5.40186e-06
2	0	0	0	1	15.5289	-0.369596	-0.369203	-0.0147343	2	-6.46422e-05	5.43994e-06
2	0	0	0	1	15.5489	-0.371595	-0.371214	-0.0147938	2	-6.49429e-05	5.49166e-06
2	0	0	0	1	15.5689	-0.373594	-0.373206	-0.0148939	2	-6.52452e-05	5.5585e-06
2	0	0	0	1	15.5889	-0.375593	-0.375218	-0.0150129	2	-6.5549e-05	5.6331e-06
2	0	0	0	1	15.6088	-0.377597	-0.377203	-0.0150665	2	-6.5853e-05	5.68314e-06
2	0	0	1	1	15.6287	-0.379591	-0.379223	-0.0152183	2	-6.61589e-05	5.77113e-06
2	0	0	1	1	15.6487	-0.381591	-0.381209	-0.015236	2	-6.6468e-05	5.8081e-06
2	0	0	1	1	15.6687	-0.38359	-0.383208	-0.015341	2	-6.67788e-05	5.87881e-06
2	0	0	1	1	15.6887	-0.385589	-0.385196	-0.0154427	2	-6.70914e-05	5.94845e-06
2	0	0	1	1	15.7087	-0.387588	-0.387183	-0.0154948	2	-6.74058e-05	5.9993e-06
2	0	0	1	1	15.7287	-0.389587	-0.389206	-0.0156181	2	-6.77223e-05	6.07865e-06
2	0	0	1	1	15.7487	-0.391587	-0.391182	-0.0157071	2	-6.80406e-05	6.14432e-06
2	0	0	1	1	15.7687	-0.393586	-0.393196	-0.0158113	2	-6.83611e-05	6.21696e-06
2	0	0	1	1	15.7887	-0.395585	-0.395173	-0.0159152	2	-6.86836e-05	6.28925e-06
2	0	0	1	1	15.8087	-0.397584	-0.39719	-0.0160218	2	-6.90082e-05	6.36369e-06
2	0	0	1	1	15.8282	-0.399533	-0.39915	-0.0161472	2	-6.93268e-05	6.44514e-06
2	1	0	1	0	15.8383	-0.399483	-0.399048	-0.0138035	2	-6.94779e-05	5.50826e-06
2	1	0	1	0	15.8583	-0.397484	-0.397047	-0.0125638	2	-6.97348e-05	4.98841e-06
2	1	0	1	0	15.8783	-0.395485	-0.395043	-0.0119483	2	-6.99746e-05	4.72008e-06
2	1	0	1	0	15.8983	-0.393486	-0.393032	-0.0114814	2	-7.02037e-05	4.51257e-06
2	1	0	1	0	15.9183	-0.391487	-0.391038	-0.011095	2	-7.04242e-05	4.33856e-06
2	1	0	1	0	15.9383	-0.389487	-0.389046	-0.0107452	2	-7.06373e-05	4.18039e-06
2	1	0	1	0	15.9583	-0.387488	-0.387041	-0.0104004	2	-7.08437e-05	4.02537e-06
2	1	0	1	0	15.9783	-0.385489	-0.385047	-0.010138	2	-7.10441e-05	3.90359e-06
2	1	0	1	0	15.9983	-0.38349	-0.383051	-0.00980718	2	-7.12387e-05	3.75665e-06
2	1	0	1	0	16.0183	-0.381491	-0.381065	-0.00960737	2	-7.1428e-05	3.66103e-06
2	1	0	1	0	16.0383	-0.379492	-0.379051	-0.00934057	2	-7.16121e-05	3.54055e-06
2	1	0	1	0	16.0582	-0.377492	-0.377033	-0.00907171	2	-7.17903e-05	3.42034e-06
2	1	0	0	0	16.0781	-0.375493	-0.37505	-0.00884914	2	-7.19639e-05	3.31887e-06
2	1	0	0	0	16.0981	-0.373494	-0.373058	-0.00866699	2	-7.2134e-05	3.23328e-06
2	1	0	0	0	16.1181	-0.371495	-0.37103	-0.00844102	2	-7.22998e-05	3.13187e-06
2	1	0	0	0	16.1381	-0.369496	-0.369051	-0.00823881	2	-7.24614e-05	3.04055e-06
2	1	0	0	0	16.1581	-0.367496	-0.367045	-0.00800326	2	-7.2619e-05	2.93756e-06
2	1	0	0	0	16.1781	-0.365497	-0.365054	-0.00782017	2	-7.27727e-05	2.85478e-06
2	1	0	0	0	16.1981	-0.363498	-0.363056	-0.00766079	2	-7.29226e-05	2.7813e-06
2	1	0	0	0	16.2181	-0.361499	-0.361066	-0.00744176	2	-7.30688e-05	2.68697e-06
2	1	0	0	0	16.2381	-0.3595	-0.359054	-0.00731167	2	-7.32115e-05	2.62528e-06
2	1	0	0	0	16.2581	-0.357501	-0.357058	-0.00714046	2	-7.33506e-05	2.54956e-06
2	1	0	0	0	16.2781	-0.355501	-0.355059	-0.00696048	2	-7.34863e-05	2.47138e-06
2	1	0	0	0	16.2981	-0.353502	-0.353063	-0.00678926	2	-7.36186e-05	2.39704e-06
2	1	0	0	0	16.3181	-0.351503	-0.351068	-0.00666151	2	-7.37477e-05	2.33865e-06
2	1	0	0	0	16.3381	-0.349504	-0.349064	-0.00646749	2	-7.38736e-05	2.25757e-06
2	1	0	0	0	16.3581	-0.347505	-0.347074	-0.00630578	2	-7.39963e-05	2.18857e-06
2	1	0	0	0	16.3781	-0.345505	-0.345076	-0.00616298	2	-7.4116e-05	2.12669e-06
2	1	0	0	0	16.3981	-0.343506	-0.343075	-0.00597473	2	-7.42326e-05	2.04978e-06
2	1	0	0	0	16.4181	-0.341507	-0.34107	-0.00586298	2	-7.43463e-05	1.99969e-06
2	1	0	0	0	16.4381	-0.339508	-0.339059	-0.00570731	2	-7.4457e-05	1.93511e-06
2	1	0	0	0	16.4581	-0.337509	-0.337083	-0.00556883	2	-7.45652e-05	1.87716e-06
2	1	0	0	0	16.4781	-0.33551	-0.335069	-0.0054654	2	-7.46704e-05	1.83129e-06
2	1	0	0	0	16.4981	-0.33351	-0.333057	-0.00529664	2	-7.47729e-05	1.76409e-06
2	1	0	0	0	16.5181	-0.331511	-0.331077	-0.00518671	2	-7.48728e-05	1.7172e-06
2	1	0	0	0	16.5381	-0.329512	-0.329081	-0.00502587	2	-7.49701e-05	1.65392e-06
2	1	0	1	0	16.5734	-0.325964	-0.325498	-0.00472273	2	-7.51386e-05	1.53724e-06
2	1	0	0	0	16.6089	-0.322415	-0.321975	-0.00438407	2	-7.53034e-05	1.41156e-06
2	1	0	0	0	16.6289	-0.320416	-0.319983	-0.00426144	2	-7.53898e-05	1.36359e-06
2	1	0	0	0	16.6489	-0.318417	-0.317979	-0.00413742	2	-7.54736e-05	1.31561e-06
2	1	0	0	0	16.6689	-0.316417	-0.315966	-0.00400237	2	-7.5555e-05	1.26461e-06
2	1	0	0	0	16.6889	-0.314418	-0.313977	-0.00390807	2	-7.56341e-05	1.22705e-06
2	1	0	0	0	16.7089	-0.312419	-0.311982	-0.00379608	2	-7.5711e-05	1.18431e-06
2	1	0	0	0	16.7289	-0.31042	-0.309998	-0.00367429	2	-7.57855e-05	1.13902e-06
2	1	0	0	0	16.7489	-0.308421	-0.307982	-0.00355647	2	-7.58576e-05	1.09533e-06
2	1	0	0	0	16.7689	-0.306421	-0.305985	-0.00343874	2	-7.59277e-05	1.0522e-06
2	1	0	0	0	16.7889	-0.304422	-0.303994	-0.00334691	2	-7.59953e-05	1.01744e-06
2	1	0	0	0	16.8089	-0.302423	-0.301989	-0.00321133	2	-7.60608e-05	9.69784e-07
2	1	0	0	0	16.8289	-0.300424	-0.299972	-0.00311349	2	-7.61242e-05	9.3396e-07
2	1	0	0	0	16.8489	-0.298425	-0.297972	-0.00302059	2	-7.61853e-05	9.00051e-07
2	1	0	0	0	16.8689	-0.296426	-0.295983	-0.00290523	2	-7.62445e-05	8.59899e-07
2	1	0	0	0	16.8889	-0.294426	-0.293983	-0.00280074	2	-7.63013e-05	8.23371e-07
2	1	0	0	0	16.9089	-0.292427	-0.29198	-0.00268968	2	-7.6356e-05	7.85333e-07
2	1	0	0	0	16.9289	-0.290428	-0.289978	-0.00259154	2	-7.64087e-05	7.51491e-07
2	1	0	0	0	16.9489	-0.288429	-0.287969	-0.00249065	2	-7.64592e-05	7.17231e-07
2	1	0	0	0	16.9689	-0.28643	-0.285971	-0.00238456	2	-7.65077e-05	6.81914e-07
2	1	0	0	0	16.9889	-0.284431	-0.283997	-0.00225885	2	-7.65541e-05	6.41507e-07
2	1	0	0	0	17.0089	-0.282431	-0.281987	-0.00216954	2	-7.65984e-05	6.11783e-07
2	1	0	0	0	17.0288	-0.280441	-0.280003	-0.00207298	2	-7.66404e-05	5.8044e-07
2	1	0	1	0	17.0487	-0.278433	-0.277999	-0.00195578	2	-7.66799e-05	5.43704e-07
2	1	0	1	0	17.0687	-0.276434	-0.275987	-0.00184862	2	-7.67176e-05	5.10196e-07
2	1	0	1	0	17.0887	-0.274435	-0.273991	-0.0017478	2	-7.67533e-05	4.78881e-07
2	1	0	1	0	17.1087	-0.272435	-0.271986	-0.00163396	2	-7.6787e-05	4.44414e-07
2	1	0	1	0	17.1287	-0.270436	-0.269997	-0.00151338	2	-7.68184e-05	4.08607e-07
2	1	0	1	0	17.1487	-0.268437	-0.267983	-0.00140875	2	-7.68475e-05	3.77521e-07
2	1	0	1	0	17.1687	-0.266438	-0.265988	-0.00129151	2	-7.68743e-05	3.43526e-07
2	1	0	1	0	17.1887	-0.264439	-0.263998	-0.00118643	2	-7.68989e-05	3.13214e-07
2	1	0	1	0	17.2087	-0.26244	-0.261981	-0.00106859	2	-7.69211e-05	2.79951e-07
2	1	0	1	0	17.2287	-0.26044	-0.259981	-0.000937664	2	-7.69411e-05	2.43775e-07
2	1	0	1	0	17.2487	-0.258441	-0.257999	-0.000829424	2	-7.69586e-05	2.1399e-07
2	1	0	1	0	17.2687	-0.256442	-0.256003	-0.000707412	2	-7.69735e-05	1.811e-07
2	1	0	1	0	17.2887	-0.254443	-0.254001	-0.000546473	2	-7.69859e-05	1.38805e-07
2	1	0	1	0	17.3087	-0.252444	-0.251996	-0.000424752	2	-7.69956e-05	1.07036e-07
2	1	0	1	0	17.3287	-0.250444	-0.249966	-0.000296828	2	-7.70026e-05	7.41969e-08
2	1	0	1	0	17.3487	-0.248445	-0.248009	-0.000142314	2	-7.70068e-05	3.52951e-08
2	1	0	1	0	17.3687	-0.246446	-0.245988	1.58843e-05	2	-7.70081e-05	3.90736e-09
2	1	0	1	0	17.3887	-0.244447	-0.244005	0.000159904	2	-7.70063e-05	3.90174e-08
2	1	0	1	0	17.4087	-0.242448	-0.242001	0.000309857	2	-7.70014e-05	7.49858e-08
2	1	0	1	0	17.4287	-0.240449	-0.23999	0.00048842	2	-7.6993e-05	1.17216e-07
2	1	0	1	0	17.4487	-0.238449	-0.23801	0.000677428	2	-7.69813e-05	1.61235e-07
2	1	0	1	0	17.4687	-0.23645	-0.235985	0.000851836	2	-7.69659e-05	2.01021e-07
2	1	0	1	0	17.4887	-0.234451	-0.234002	0.00103779	2	-7.69469e-05	2.42845e-07
2	1	0	1	0	17.5087	-0.232452	-0.231998	0.00123557	2	-7.69239e-05	2.86649e-07
2	1	0	0	0	17.5285	-0.230453	-0.229988	0.00146483	2	-7.68968e-05	3.36894e-07
2	1	0	0	0	17.5485	-0.228453	-0.228008	0.00166887	2	-7.68654e-05	3.80516e-07
2	1	0	0	0	17.5685	-0.226454	-0.226033	0.00190646	2	-7.68295e-05	4.30923e-07
2	1	0	0	0	17.5885	-0.224455	-0.224014	0.00215425	2	-7.67887e-05	4.82583e-07
2	1	0	0	0	17.6085	-0.222456	-0.222	0.00239582	2	-7.67429e-05	5.31872e-07
2	1	0	0	0	17.6285	-0.220457	-0.220006	0.00267832	2	-7.66922e-05	5.89246e-07
2	1	0	0	0	17.6485	-0.218458	-0.217996	0.00294061	2	-7.66358e-05	6.41041e-07
2	1	0	0	0	17.6685	-0.216458	-0.216013	0.00323169	2	-7.65739e-05	6.98086e-07
2	1	0	0	0	17.6885	-0.214459	-0.214009	0.00353459	2	-7.65061e-05	7.56435e-07
2	1	0	0	0	17.7085	-0.21246	-0.211989	0.00383805	2	-7.64321e-05	8.13626e-07
2	1	0	0	0	17.7285	-0.210461	-0.210002	0.00416094	2	-7.6352e-05	8.73806e-07
2	1	0	0	0	17.7485	-0.208462	-0.208003	0.00448215	2	-7.62654e-05	9.32299e-07
2	1	0	0	0	17.7685	-0.206462	-0.206014	0.0048205	2	-7.61722e-05	9.9309e-07
2	1	0	0	0	17.7885	-0.204463	-0.204002	0.00516443	2	-7.60721e-05	1.05355e-06
2	1	0	0	0	17.8085	-0.202464	-0.202	0.00551725	2	-7.59651e-05	1.11448e-06
2	1	0	0	0	17.8285	-0.200465	-0.199991	0.00585842	2	-7.5851e-05	1.17163e-06
2	1	0	0	0	17.8485	-0.198466	-0.197985	0.00620634	2	-7.573e-05	1.22876e-06
2	1	0	0	0	17.8685	-0.196467	-0.195987	0.00656643	2	-7.56021e-05	1.28693e-06
2	1	0	0	0	17.8885	-0.194467	-0.19399	0.00689486	2	-7.54674e-05	1.33753e-06
2	1	0	0	0	17.9085	-0.192468	-0.191983	0.00722568	2	-7.53258e-05	1.38721e-06
2	1	0	0	0	17.9285	-0.190469	-0.189961	0.00757551	2	-7.51775e-05	1.43905e-06
2	1	0	0	0	17.9485	-0.18847	-0.187971	0.00787336	2	-7.50227e-05	1.47997e-06
2	1	0	0	0	17.9685	-0.186471	-0.185943	0.00818313	2	-7.4862e-05	1.5216e-06
2	1	0	0	0	17.9885	-0.184472	-0.183973	0.00843816	2	-7.46954e-05	1.55239e-06
2	1	0	0	0	18.0084	-0.182475	-0.181957	0.00873665	2	-7.45244e-05	1.58969e-06
2	1	0	1	0	18.0283	-0.180473	-0.179951	0.00895264	2	-7.43482e-05	1.61104e-06
2	1	0	1	0	18.0483	-0.178474	-0.17796	0.00916405	2	-7.41669e-05	1.63083e-06
2	1	0	1	0	18.0683	-0.176475	-0.175974	0.00934271	2	-7.39816e-05	1.64407e-06
2	1	0	1	0	18.0883	-0.174476	-0.173962	0.0095067	2	-7.37929e-05	1.6538e-06
2	1	0	1	0	18.1083	-0.172476	-0.171964	0.00965362	2	-7.36011e-05	1.66008e-06
2	1	0	1	0	18.1283	-0.170477	-0.169958	0.00973899	2	-7.3407e-05	1.65522e-06
2	1	0	1	0	18.1483	-0.168478	-0.16796	0.00982625	2	-7.32112e-05	1.65042e-06
2	1	0	1	0	18.1683	-0.166479	-0.165979	0.00984319	2	-7.30142e-05	1.63376e-06
2	1	0	1	0	18.1883	-0.16448	-0.163953	0.00990663	2	-7.28165e-05	1.62423e-06
2	1	0	1	0	18.2083	-0.16248	-0.161947	0.00988677	2	-7.26184e-05	1.60113e-06
2	1	0	1	0	18.2283	-0.160481	-0.159946	0.00986272	2	-7.24206e-05	1.5775e-06
2	1	0	1	0	18.2483	-0.158482	-0.157955	0.00981685	2	-7.22236e-05	1.55062e-06
2	1	0	1	0	18.2683	-0.156483	-0.155972	0.00975065	2	-7.20278e-05	1.52083e-06
2	1	0	1	0	18.2883	-0.154484	-0.15396	0.00967794	2	-7.18333e-05	1.49001e-06
2	1	0	1	0	18.3083	-0.152485	-0.151976	0.00956817	2	-7.16405e-05	1.45414e-06
2	1	0	1	0	18.3283	-0.150485	-0.149971	0.00947453	2	-7.14498e-05	1.4209e-06
2	1	0	1	0	18.3483	-0.148486	-0.147976	0.00937015	2	-7.12612e-05	1.38656e-06
2	1	0	1	0	18.3683	-0.146487	-0.145962	0.00922907	2	-7.10752e-05	1.34709e-06
2	1	0	1	0	18.3883	-0.144488	-0.143977	0.00908647	2	-7.08917e-05	1.30824e-06
2	1	0	1	0	18.4083	-0.142489	-0.141956	0.00897019	2	-7.0711e-05	1.27337e-06
2	1	0	1	0	18.4283	-0.14049	-0.139975	0.00881739	2	-7.05329e-05	1.23421e-06
2	1	0	1	0	18.4483	-0.13849	-0.137966	0.00868489	2	-7.03577e-05	1.19822e-06
2	1	0	1	0	18.4683	-0.136491	-0.135961	0.0085395	2	-7.01854e-05	1.16104e-06
2	1	0	1	0	18.4883	-0.134492	-0.13397	0.00838791	2	-7.0016e-05	1.12373e-06
2	1	0	0	0	18.5081	-0.132493	-0.131974	0.00825222	2	-6.98509e-05	1.08908e-06
2	1	0	0	0	18.5281	-0.130494	-0.129999	0.00809925	2	-6.96872e-05	1.05289e-06
2	1	0	0	0	18.5481	-0.128494	-0.127991	0.00796583	2	-6.95261e-05	1.01955e-06
2	1	0	0	0	18.5681	-0.126495	-0.125982	0.00782501	2	-6.93679e-05	9.8581e-07
2	1	0	0	0	18.5881	-0.124496	-0.123995	0.00770147	2	-6.92126e-05	9.54948e-07
2	1	0	0	0	18.6081	-0.122497	-0.122	0.00756595	2	-6.90596e-05	9.23049e-07
2	1	0	0	0	18.6281	-0.120498	-0.119992	0.00744132	2	-6.89092e-05	8.92901e-07
2	1	0	0	0	18.6481	-0.118499	-0.117984	0.00732798	2	-6.87612e-05	8.64586e-07
2	1	0	0	0	18.6681	-0.116499	-0.116	0.00721483	2	-6.86156e-05	8.36921e-07
2	1	0	0	0	18.6881	-0.1145	-0.113996	0.00710153	2	-6.84722e-05	8.09544e-07
2	1	0	0	0	18.7081	-0.112501	-0.111988	0.00700286	2	-6.83309e-05	7.84233e-07
2	1	0	0	0	18.7281	-0.110502	-0.110002	0.00690624	2	-6.81918e-05	7.59698e-07
2	1	0	0	0	18.7481	-0.108503	-0.107978	0.00681418	2	-6.80546e-05	7.35779e-07
2	1	0	0	0	18.7681	-0.106503	-0.106001	0.0067009	2	-6.79195e-05	7.10301e-07
2	1	0	0	0	18.7881	-0.104504	-0.103998	0.00661646	2	-6.7786e-05	6.88102e-07
2	1	0	0	0	18.8081	-0.102505	-0.101998	0.00652639	2	-6.76544e-05	6.65678e-07
2	1	0	0	0	18.8281	-0.100506	-0.0999904	0.00645324	2	-6.75243e-05	6.45261e-07
2	1	0	0	0	18.8481	-0.0985067	-0.097989	0.00637623	2	-6.73959e-05	6.248e-07
2	1	0	0	0	18.8681	-0.0965075	-0.0959814	0.0062976	2	-6.72689e-05	6.04453e-07
2	1	0	0	0	18.8881	-0.0945084	-0.0939868	0.00622841	2	-6.71435e-05	5.85389e-07
2	1	0	0	0	18.9081	-0.0925092	-0.0919886	0.00616525	2	-6.70196e-05	5.67133e-07
2	1	0	0	0	18.9281	-0.09051	-0.0899955	0.00610771	2	-6.68968e-05	5.49666e-07
2	1	0	0	0	18.9481	-0.0885108	-0.0880026	0.00604649	2	-6.67754e-05	5.32106e-07
2	1	0	0	0	18.9681	-0.0865116	-0.0859971	0.00597693	2	-6.6655e-05	5.13999e-07
2	1	0	0	0	18.988	-0.0845056	-0.0839904	0.00595169	2	-6.65363e-05	4.99885e-07
2	1	0	1	0	19.0079	-0.0825133	-0.0819782	0.00587071	2	-6.64187e-05	4.81271e-07
2	1	0	1	0	19.0279	-0.0805141	-0.0800012	0.0058166	2	-6.63016e-05	4.65335e-07
2	1	0	1	0	19.0479	-0.0785149	-0.0780096	0.00577089	2	-6.61856e-05	4.50185e-07
2	1	0	1	0	19.0679	-0.0765157	-0.076005	0.00572927	2	-6.60705e-05	4.35453e-07
2	1	0	1	0	19.0879	-0.0745166	-0.0740314	0.00568558	2	-6.59563e-05	4.20912e-07
2	1	0	1	0	19.1079	-0.0725174	-0.0720058	0.00564477	2	-6.5843e-05	4.06456e-07
2	1	0	1	0	19.1279	-0.0705182	-0.0700142	0.00558999	2	-6.57303e-05	3.91379e-07
2	1	0	1	0	19.1479	-0.068519	-0.0680138	0.00557657	2	-6.56186e-05	3.79284e-07
2	1	0	1	0	19.1679	-0.0665198	-0.0660298	0.00553595	2	-6.55075e-05	3.65538e-07
2	1	0	1	0	19.1879	-0.0645206	-0.0640239	0.00548657	2	-6.5397e-05	3.51272e-07
2	1	0	1	0	19.2079	-0.0625215	-0.0620141	0.00547103	2	-6.52872e-05	3.39281e-07
2	1	0	1	0	19.2279	-0.0605223	-0.0600055	0.00545358	2	-6.51779e-05	3.27245e-07
2	1	0	1	0	19.2479	-0.0585231	-0.0580081	0.00541665	2	-6.50693e-05	3.1421e-07
2	1	0	1	0	19.2679	-0.0565239	-0.056023	0.00537713	2	-6.49614e-05	3.01243e-07
2	1	0	1	0	19.2879	-0.0545247	-0.0540151	0.0053478	2	-6.4854e-05	2.88862e-07
2	1	0	1	0	19.3079	-0.0525256	-0.0520132	0.00534275	2	-6.47469e-05	2.77894e-07
2	1	0	1	0	19.3279	-0.0505264	-0.0500212	0.00530023	2	-6.46404e-05	2.65124e-07
2	1	0	1	0	19.3479	-0.0485272	-0.048027	0.00528619	2	-6.45343e-05	2.5388e-07
2	1	0	1	0	19.3679	-0.046528	-0.04603	0.00527158	2	-6.44286e-05	2.42651e-07
2	1	0	1	0	19.3879	-0.0445289	-0.0440195	0.00523486	2	-6.43233e-05	2.30436e-07
2	1	0	1	0	19.4079	-0.0425297	-0.0420321	0.0052358	2	-6.42185e-05	2.20072e-07
2	1	0	1	0	19.4279	-0.0405305	-0.0400426	0.00521914	2	-6.41139e-05	2.08988e-07
2	1	0	1	0	19.4479	-0.0385313	-0.0380213	0.00519009	2	-6.40097e-05	1.97334e-07
2	1	0	1	0	19.4679	-0.0365321	-0.0360322	0.0051891	2	-6.39056e-05	1.86975e-07
2	1	0	0	0	19.4877	-0.034533	-0.0340475	0.00517608	2	-6.38027e-05	1.76233e-07
2	1	0	0	0	19.5077	-0.0325338	-0.0320425	0.00515139	2	-6.36993e-05	1.65064e-07
2	1	0	0	0	19.5277	-0.0305346	-0.0300428	0.00514008	2	-6.35961e-05	1.54422e-07
2	1	0	0	0	19.5477	-0.0285354	-0.0280556	0.00513861	2	-6.34932e-05	1.44167e-07
2	1	0	0	0	19.5677	-0.0265362	-0.0260288	0.00512996	2	-6.33905e-05	1.33527e-07
2	1	0	0	0	19.5877	-0.024537	-0.0240382	0.00511511	2	-6.3288e-05	1.22958e-07
2	1	0	0	0	19.6077	-0.0225379	-0.0220357	0.00509539	2	-6.31857e-05	1.12281e-07
2	1	0	0	0	19.6277	-0.0205387	-0.020032	0.00509811	2	-6.30835e-05	1.02125e-07
2	1	0	0	0	19.6477	-0.0185395	-0.0180334	0.00509141	2	-6.29815e-05	9.18153e-08
2	1	0	0	0	19.6677	-0.0165403	-0.0160506	0.00507275	2	-6.28797e-05	8.14209e-08
2	1	0	0	0	19.6877	-0.0145411	-0.0140469	0.00508026	2	-6.27781e-05	7.13619e-08
2	1	0	0	0	19.7077	-0.012542	-0.0120578	0.0050633	2	-6.26765e-05	6.10523e-08
2	1	0	0	0	19.7277	-0.0105428	-0.0100386	0.00506702	2	-6.25748e-05	5.08659e-08
2	1	0	0	0	19.7477	-0.0085436	-0.00803107	0.00507139	2	-6.24733e-05	4.07287e-08
2	1	0	0	0	19.7677	-0.00654442	-0.00605553	0.00505344	2	-6.23719e-05	3.06013e-08
2	1	0	0	0	19.7877	-0.00454524	-0.0040376	0.00506453	2	-6.22707e-05	2.04485e-08
2	1	0	0	0	19.8077	-0.00254606	-0.00206143	0.00505278	2	-6.21694e-05	1.04159e-08
2	1	0	0	0	19.8277	-0.000546877	-5.43084e-05	0.00505285	2	-6.20682e-05	2.74412e-10
2	1	0	0	0	19.8477	0.0014523	0.00194921	0.00506305	2	-6.1967e-05	9.86893e-09
2	1	0	0	0	19.8677	0.00345148	0.00394403	0.00506075	2	-6.18656e-05	1.99597e-08
2	1	0	0	0	19.8877	0.00545066	0.00594458	0.00505284	2	-6.17644e-05	3.0037e-08
2	1	0	0	0	19.9077	0.00744984	0.0079517	0.00503879	2	-6.16632e-05	4.00669e-08
2	1	0	0	0	19.9277	0.00944902	0.00994101	0.00505737	2	-6.15621e-05	5.02754e-08
2	1	0	0	0	19.9477	0.0114482	0.0119553	0.00504924	2	-6.14608e-05	6.03654e-08
2	1	0	1	0	19.9635	0.0130475	0.0135565	0.00509993	2	-6.13805e-05	6.91374e-08