File: TAP_Report/Data/MB_Suscept/6_bw_anti_2_C01_2.mpt
EC-Lab ASCII FILE
Nb header lines : 56

Cyclic Voltammetry

Run on channel : 1 (SN 0696)
User :
Electrode connection : standard
Ewe ctrl range : min = -2.50 V, max = 2.50 V
Ewe,I filtering : 50 kHz
Safety Limits :
	Do not start on E overload
Channel : Floating
Acquisition started on : 09/12/2016 16:07:30
Saved on :
	File : 6_bw_anti_2_C01.mpr
	Directory : \\userfs\st659\w2k\EC-Lab\Data\Meth_Blue 12-09-16\
	Host : 144.32.136.43
Device : SP-300 (SN 0182)
Address : USB
EC-Lab for windows v10.44 (software)
Internet server v10.44 (firmware)
Command interpretor v10.44 (firmware)
Electrode material :
Initial state :
Electrolyte :
Comments :
Cable : standard
Reference electrode : SCE Saturated Calomel Electrode (0.241 V)
Electrode surface area : 0.001 cm²
Characteristic mass : 0.001 g
Equivalent Weight : 0.000 g/eq.
Density : 0.000 g/cm3
Ei (V)              0.000
vs.                 Eoc
dE/dt               100.000
dE/dt unit          mV/s
E1 (V)              0.100
vs.                 Ref
Step percent        50
N                   10
E range min (V)     -2.500
E range max (V)     2.500
I Range             Auto
I Range min         Unset
I Range max         Unset
I Range init        Unset
Bandwidth           8
E2 (V)              -0.400
vs.                 Ref
nc cycles           2
Reverse Scan        1
Ef (V)              0.000
vs.                 Eoc

mode	ox/red	error	control changes	counter inc.	time/s	control/V	Ewe/V	<I>/mA	cycle number	(Q-Qo)/C	P/W
2	1	0	1	1	9.966	0.0141243	0.0146149	0.00494636	2	-5.02573e-05	7.22904e-08
2	1	0	0	1	9.9815	0.0156736	0.0161183	0.00481194	2	-5.01825e-05	7.75604e-08
2	1	0	0	1	10.0015	0.0176728	0.0181382	0.00482932	2	-5.00859e-05	8.75951e-08
2	1	0	0	1	10.0215	0.019672	0.0201277	0.00482787	2	-4.99894e-05	9.7174e-08
2	1	0	0	1	10.0415	0.0216712	0.0221181	0.00484083	2	-4.98927e-05	1.0707e-07
2	1	0	0	1	10.0615	0.0236703	0.0241129	0.00485237	2	-4.97958e-05	1.17005e-07
2	1	0	0	1	10.0815	0.0256695	0.0261117	0.00484356	2	-4.96987e-05	1.26474e-07
2	1	0	0	1	10.1015	0.0276687	0.0281182	0.00486833	2	-4.96016e-05	1.36889e-07
2	1	0	0	1	10.1215	0.0296679	0.0301177	0.00486242	2	-4.95042e-05	1.46445e-07
2	1	0	0	1	10.1415	0.0316671	0.0321096	0.004876	2	-4.94065e-05	1.56566e-07
2	1	0	0	1	10.1615	0.0336662	0.0341256	0.00487391	2	-4.93088e-05	1.66325e-07
2	1	0	0	1	10.1815	0.0356654	0.036117	0.00490101	2	-4.92108e-05	1.7701e-07
2	1	0	0	1	10.2015	0.0376646	0.0381216	0.00489052	2	-4.91126e-05	1.86435e-07
2	1	0	0	1	10.2215	0.0396638	0.0401169	0.00491536	2	-4.90142e-05	1.97189e-07
2	1	0	0	1	10.2415	0.0416629	0.0421015	0.00492625	2	-4.89156e-05	2.07402e-07
2	1	0	0	1	10.2615	0.0436621	0.0441224	0.0049457	2	-4.88167e-05	2.18216e-07
2	1	0	0	1	10.2815	0.0456613	0.0461051	0.00493909	2	-4.87176e-05	2.27717e-07
2	1	0	0	1	10.3015	0.0476605	0.0481038	0.00496002	2	-4.86184e-05	2.38596e-07
2	1	0	0	1	10.3215	0.0496597	0.0501084	0.00496759	2	-4.85187e-05	2.48918e-07
2	1	0	0	1	10.3415	0.0516588	0.052111	0.00498991	2	-4.8419e-05	2.6003e-07
2	1	0	0	1	10.3615	0.053658	0.0540978	0.00498988	2	-4.8319e-05	2.69941e-07
2	1	0	0	1	10.3815	0.0556572	0.0561055	0.0050301	2	-4.82187e-05	2.82216e-07
2	1	0	0	1	10.4015	0.0576564	0.0580966	0.00502127	2	-4.81181e-05	2.91719e-07
2	1	0	0	1	10.4215	0.0596556	0.0600884	0.00504506	2	-4.80173e-05	3.0315e-07
2	1	0	0	1	10.4415	0.0616547	0.0621049	0.00506352	2	-4.79161e-05	3.14469e-07
2	1	0	1	1	10.4613	0.0636539	0.0641092	0.00507256	2	-4.78153e-05	3.25198e-07
2	1	0	1	1	10.4813	0.0656531	0.0661007	0.0051091	2	-4.77134e-05	3.37715e-07
2	1	0	1	1	10.5013	0.0676523	0.0680991	0.00510802	2	-4.76112e-05	3.47851e-07
2	1	0	1	1	10.5213	0.0696514	0.0700922	0.00510397	2	-4.75088e-05	3.57748e-07
2	1	0	1	1	10.5413	0.0716506	0.0720981	0.00512916	2	-4.7406e-05	3.69802e-07
2	1	0	1	1	10.5613	0.0736498	0.074088	0.00515104	2	-4.73029e-05	3.8163e-07
2	1	0	1	1	10.5813	0.075649	0.0760987	0.00518	2	-4.71994e-05	3.94191e-07
2	1	0	1	1	10.6013	0.0776481	0.0780719	0.00517444	2	-4.70957e-05	4.03978e-07
2	1	0	1	1	10.6213	0.0796473	0.0800865	0.00521647	2	-4.69914e-05	4.17768e-07
2	1	0	1	1	10.6413	0.0816465	0.0820868	0.00524956	2	-4.68868e-05	4.3092e-07
2	1	0	1	1	10.6613	0.0836457	0.0840804	0.00524649	2	-4.67818e-05	4.41126e-07
2	1	0	1	1	10.6813	0.0856449	0.0860803	0.0052674	2	-4.66764e-05	4.53419e-07
2	1	0	1	1	10.7013	0.087644	0.0880889	0.00528781	2	-4.65706e-05	4.65797e-07
2	1	0	1	1	10.7213	0.0896432	0.0900771	0.005307	2	-4.64643e-05	4.78039e-07
2	1	0	1	1	10.7413	0.0916424	0.0920919	0.00534738	2	-4.63574e-05	4.9245e-07
2	1	0	1	1	10.7613	0.0936416	0.0941041	0.00536536	2	-4.62502e-05	5.04903e-07
2	1	0	1	1	10.7813	0.0956408	0.0960858	0.00537147	2	-4.61425e-05	5.16122e-07
2	1	0	1	1	10.8013	0.0976399	0.098084	0.00540923	2	-4.60344e-05	5.30558e-07
2	1	0	1	1	10.8203	0.0995392	0.0999659	0.00542395	2	-4.59313e-05	5.4221e-07
2	0	0	0	1	10.8307	0.0994392	0.0998189	0.00280654	2	-4.58878e-05	2.80146e-07
2	0	0	0	1	10.8507	0.09744	0.0977942	0.00195834	2	-4.58416e-05	1.91514e-07
2	0	0	0	1	10.8707	0.0954408	0.0958089	0.00149883	2	-4.58075e-05	1.43602e-07
2	0	0	0	1	10.8907	0.0934417	0.0937986	0.00116637	2	-4.57814e-05	1.09404e-07
2	0	0	0	1	10.9107	0.0914425	0.0917818	0.000912537	2	-4.57608e-05	8.37543e-08
2	0	0	0	1	10.9307	0.0894433	0.0897776	0.000708495	2	-4.57452e-05	6.3607e-08
2	0	0	0	1	10.9507	0.0874441	0.0877631	0.000514394	2	-4.57333e-05	4.51448e-08
2	0	0	0	1	10.9707	0.0854449	0.0857861	0.000364852	2	-4.57247e-05	3.12992e-08
2	0	0	0	1	10.9907	0.0834458	0.0837834	0.000209027	2	-4.57192e-05	1.7513e-08
2	0	0	0	1	11.0107	0.0814466	0.0817932	8.05329e-05	2	-4.57163e-05	6.58704e-09
2	0	0	0	1	11.0307	0.0794474	0.0797918	-2.61996e-05	2	-4.57159e-05	2.09052e-09
2	0	0	0	1	11.0507	0.0774482	0.0777917	-0.000133382	2	-4.57178e-05	1.0376e-08
2	0	0	0	1	11.0707	0.0754491	0.0758064	-0.000233007	2	-4.57216e-05	1.76635e-08
2	0	0	0	1	11.0907	0.0734499	0.0738025	-0.000324497	2	-4.57276e-05	2.39487e-08
2	0	0	0	1	11.1107	0.0714507	0.0717977	-0.00040687	2	-4.57352e-05	2.92123e-08
2	0	0	0	1	11.1307	0.0694515	0.0698041	-0.000475535	2	-4.57444e-05	3.31943e-08
2	0	0	0	1	11.1507	0.0674523	0.0678144	-0.00056194	2	-4.57553e-05	3.81076e-08
2	0	0	0	1	11.1707	0.0654532	0.0658083	-0.000635264	2	-4.57677e-05	4.18057e-08
2	0	0	0	1	11.1907	0.063454	0.063815	-0.000708458	2	-4.57814e-05	4.52103e-08
2	0	0	1	1	11.2105	0.0614548	0.0618064	-0.000779338	2	-4.57966e-05	4.81681e-08
2	0	0	1	1	11.2305	0.0594556	0.0598023	-0.000833135	2	-4.58129e-05	4.98234e-08
2	0	0	1	1	11.2505	0.0574565	0.0578125	-0.00089063	2	-4.58302e-05	5.14896e-08
2	0	0	1	1	11.2705	0.0554573	0.0558105	-0.000942275	2	-4.58488e-05	5.25888e-08
2	0	0	1	1	11.2905	0.0534581	0.0538199	-0.000984308	2	-4.58685e-05	5.29754e-08
2	0	0	1	1	11.3105	0.0514589	0.0518056	-0.00104264	2	-4.58891e-05	5.40143e-08
2	0	0	1	1	11.3305	0.0494597	0.0498184	-0.00109226	2	-4.59107e-05	5.44145e-08
2	0	0	1	1	11.3505	0.0474606	0.0478015	-0.00113262	2	-4.59332e-05	5.41412e-08
2	0	0	1	1	11.3705	0.0454614	0.045809	-0.0011769	2	-4.59566e-05	5.39125e-08
2	0	0	1	1	11.3905	0.0434622	0.0438119	-0.00122639	2	-4.59808e-05	5.37302e-08
2	0	0	1	1	11.4105	0.041463	0.0418209	-0.00126343	2	-4.60059e-05	5.28376e-08
2	0	0	1	1	11.4305	0.0394638	0.0397981	-0.00130354	2	-4.60319e-05	5.18783e-08
2	0	0	1	1	11.4505	0.0374647	0.0378282	-0.00132812	2	-4.60585e-05	5.02405e-08
2	0	0	1	1	11.4705	0.0354655	0.0358194	-0.00139022	2	-4.6086e-05	4.9797e-08
2	0	0	1	1	11.4905	0.0334663	0.0338072	-0.00142116	2	-4.61142e-05	4.80454e-08
2	0	0	1	1	11.5105	0.0314671	0.0318147	-0.00145104	2	-4.61429e-05	4.61644e-08
2	0	0	1	1	11.5305	0.029468	0.0298116	-0.00148975	2	-4.61725e-05	4.44118e-08
2	0	0	1	1	11.5505	0.0274688	0.0278105	-0.00151882	2	-4.62027e-05	4.22389e-08
2	0	0	1	1	11.5705	0.0254696	0.0258262	-0.00156208	2	-4.62336e-05	4.03427e-08
2	0	0	1	1	11.5905	0.0234704	0.0238212	-0.00158061	2	-4.62651e-05	3.76521e-08
2	0	0	1	1	11.6105	0.0214712	0.0218319	-0.00161583	2	-4.62973e-05	3.52768e-08
2	0	0	1	1	11.6305	0.0194721	0.0198271	-0.00163095	2	-4.633e-05	3.2337e-08
2	0	0	1	1	11.6505	0.0174729	0.0178164	-0.001679	2	-4.63633e-05	2.99138e-08
2	0	0	1	1	11.6705	0.0154737	0.0158262	-0.00170141	2	-4.63972e-05	2.69269e-08
2	0	0	1	1	11.6904	0.0134654	0.0138166	-0.00175634	2	-4.64317e-05	2.42667e-08
2	0	0	0	1	11.7103	0.0114754	0.0118254	-0.00175922	2	-4.64669e-05	2.08034e-08
2	0	0	0	1	11.7303	0.00947618	0.00981422	-0.00180151	2	-4.65025e-05	1.76805e-08
2	0	0	0	1	11.7503	0.007477	0.00782003	-0.00181222	2	-4.65388e-05	1.41716e-08
2	0	0	0	1	11.7703	0.00547782	0.00583199	-0.00183785	2	-4.65754e-05	1.07183e-08
2	0	0	0	1	11.7903	0.00347864	0.00383505	-0.00186309	2	-4.66127e-05	7.14503e-09
2	0	0	0	1	11.8103	0.00147947	0.00182835	-0.00190825	2	-4.66505e-05	3.48895e-09
2	0	0	0	1	11.8303	-0.000519712	-0.000175164	-0.00192372	2	-4.6689e-05	3.36966e-10
2	0	0	0	1	11.8503	-0.00251889	-0.00218695	-0.00195112	2	-4.67278e-05	4.267e-09
2	0	0	0	1	11.8703	-0.00451807	-0.0041858	-0.00197126	2	-4.67672e-05	8.25128e-09
2	0	0	0	1	11.8903	-0.00651725	-0.00618592	-0.00199272	2	-4.68069e-05	1.23268e-08
2	0	0	0	1	11.9103	-0.00851643	-0.00817248	-0.00203183	2	-4.68472e-05	1.66051e-08
2	0	0	0	1	11.9303	-0.0105156	-0.0101633	-0.00204095	2	-4.6888e-05	2.07428e-08
2	0	0	0	1	11.9503	-0.0125148	-0.0121823	-0.00207533	2	-4.69295e-05	2.52822e-08
2	0	0	0	1	11.9703	-0.014514	-0.0141506	-0.0020961	2	-4.69712e-05	2.96611e-08
2	0	0	0	1	11.9903	-0.0165131	-0.0161766	-0.00210673	2	-4.70136e-05	3.40796e-08
2	0	0	0	1	12.0103	-0.0185123	-0.0181742	-0.0021329	2	-4.70563e-05	3.87637e-08
2	0	0	0	1	12.0303	-0.0205115	-0.0201692	-0.0021721	2	-4.70995e-05	4.38095e-08
2	0	0	0	1	12.0503	-0.0225107	-0.0221761	-0.00218718	2	-4.71433e-05	4.85031e-08
2	0	0	0	1	12.0703	-0.0245099	-0.0241728	-0.00220024	2	-4.71875e-05	5.31861e-08
2	0	0	0	1	12.0903	-0.026509	-0.0261456	-0.00222305	2	-4.72321e-05	5.8123e-08
2	0	0	0	1	12.1103	-0.0285082	-0.0281756	-0.00225646	2	-4.72772e-05	6.35771e-08
2	0	0	0	1	12.1303	-0.0305074	-0.0301632	-0.00226991	2	-4.73228e-05	6.84679e-08
2	0	0	0	1	12.1503	-0.0325066	-0.0321647	-0.00230073	2	-4.73689e-05	7.40021e-08
2	0	0	0	1	12.1702	-0.0344989	-0.0341521	-0.00234487	2	-4.74152e-05	8.00821e-08
2	0	0	1	1	12.1901	-0.0365049	-0.0361552	-0.00235519	2	-4.74622e-05	8.51524e-08
2	0	0	1	1	12.2101	-0.0385041	-0.0381707	-0.00237705	2	-4.75099e-05	9.07338e-08
2	0	0	1	1	12.2301	-0.0405033	-0.0401694	-0.00241217	2	-4.75579e-05	9.68955e-08
2	0	0	1	1	12.2501	-0.0425025	-0.0421659	-0.00242437	2	-4.76064e-05	1.02226e-07
2	0	0	1	1	12.2701	-0.0445016	-0.0441423	-0.00245216	2	-4.76552e-05	1.08244e-07
2	0	0	1	1	12.2901	-0.0465008	-0.0461632	-0.00248159	2	-4.77046e-05	1.14558e-07
2	0	0	1	1	12.3101	-0.0485	-0.0481576	-0.00249013	2	-4.77544e-05	1.19919e-07
2	0	0	1	1	12.3301	-0.0504992	-0.0501696	-0.00250608	2	-4.78049e-05	1.25729e-07
2	0	0	1	1	12.3501	-0.0524984	-0.0521491	-0.00253631	2	-4.78555e-05	1.32266e-07
2	0	0	1	1	12.3701	-0.0544975	-0.0541531	-0.0025693	2	-4.79068e-05	1.39136e-07
2	0	0	1	1	12.3901	-0.0564967	-0.0561553	-0.00257941	2	-4.79585e-05	1.44848e-07
2	0	0	1	1	12.4101	-0.0584959	-0.058154	-0.00259344	2	-4.80106e-05	1.50819e-07
2	0	0	1	1	12.4301	-0.0604951	-0.0601382	-0.00263441	2	-4.80632e-05	1.58429e-07
2	0	0	1	1	12.4501	-0.0624943	-0.0621655	-0.00267759	2	-4.81165e-05	1.66454e-07
2	0	0	1	1	12.4701	-0.0644934	-0.064163	-0.00267356	2	-4.817e-05	1.71544e-07
2	0	0	1	1	12.4901	-0.0664926	-0.0661426	-0.00271592	2	-4.82242e-05	1.79638e-07
2	0	0	1	1	12.5101	-0.0684918	-0.0681552	-0.00273321	2	-4.82787e-05	1.86282e-07
2	0	0	1	1	12.5301	-0.070491	-0.0701477	-0.00274982	2	-4.83337e-05	1.92894e-07
2	0	0	1	1	12.5501	-0.0724902	-0.0721536	-0.002786	2	-4.83892e-05	2.0102e-07
2	0	0	1	1	12.5701	-0.0744893	-0.0741562	-0.00280276	2	-4.84453e-05	2.07842e-07
2	0	0	1	1	12.5901	-0.0764885	-0.0761388	-0.0028313	2	-4.85018e-05	2.15571e-07
2	0	0	1	1	12.6101	-0.0784877	-0.0781505	-0.0028549	2	-4.85589e-05	2.23112e-07
2	0	0	1	1	12.6301	-0.0804869	-0.080143	-0.00287846	2	-4.86163e-05	2.30689e-07
2	0	0	1	1	12.6501	-0.0824861	-0.082151	-0.00290084	2	-4.86743e-05	2.38307e-07
2	0	0	0	1	12.6699	-0.0844852	-0.084142	-0.00293695	2	-4.87325e-05	2.47121e-07
2	0	0	0	1	12.6899	-0.0864844	-0.0861477	-0.00295839	2	-4.87917e-05	2.54858e-07
2	0	0	0	1	12.7099	-0.0884836	-0.0881436	-0.00300624	2	-4.88514e-05	2.64981e-07
2	0	0	0	1	12.7299	-0.0904828	-0.0901428	-0.00301144	2	-4.89116e-05	2.71459e-07
2	0	0	0	1	12.7499	-0.0924819	-0.0921431	-0.00304115	2	-4.89724e-05	2.80221e-07
2	0	0	0	1	12.7699	-0.0944811	-0.094152	-0.00306981	2	-4.90336e-05	2.89029e-07
2	0	0	0	1	12.7899	-0.0964803	-0.0961508	-0.00310182	2	-4.90953e-05	2.98243e-07
2	0	0	0	1	12.8099	-0.0984795	-0.0981414	-0.00312259	2	-4.91578e-05	3.06455e-07
2	0	0	0	1	12.8299	-0.100479	-0.100139	-0.003159	2	-4.92208e-05	3.16341e-07
2	0	0	0	1	12.8499	-0.102478	-0.102147	-0.0031957	2	-4.92846e-05	3.26432e-07
2	0	0	0	1	12.8699	-0.104477	-0.104153	-0.00322808	2	-4.93488e-05	3.36213e-07
2	0	0	0	1	12.8899	-0.106476	-0.106146	-0.00324185	2	-4.94138e-05	3.4411e-07
2	0	0	0	1	12.9099	-0.108475	-0.108147	-0.00328789	2	-4.94792e-05	3.55576e-07
2	0	0	0	1	12.9299	-0.110475	-0.110151	-0.00332954	2	-4.95454e-05	3.66754e-07
2	0	0	0	1	12.9499	-0.112474	-0.112165	-0.00334669	2	-4.96124e-05	3.75382e-07
2	0	0	0	1	12.9699	-0.114473	-0.114158	-0.00339723	2	-4.96802e-05	3.8782e-07
2	0	0	0	1	12.9899	-0.116472	-0.116162	-0.0034278	2	-4.97487e-05	3.9818e-07
2	0	0	0	1	13.0099	-0.118471	-0.118161	-0.00347843	2	-4.9818e-05	4.11013e-07
2	0	0	0	1	13.0299	-0.12047	-0.120145	-0.0035093	2	-4.9888e-05	4.21624e-07
2	0	0	0	1	13.0499	-0.12247	-0.122142	-0.00354896	2	-4.99589e-05	4.33477e-07
2	0	0	0	1	13.0699	-0.124469	-0.124156	-0.00361752	2	-5.00309e-05	4.49137e-07
2	0	0	0	1	13.0899	-0.126468	-0.126141	-0.00365645	2	-5.01038e-05	4.61227e-07
2	0	0	0	1	13.1099	-0.128467	-0.128135	-0.00371025	2	-5.01776e-05	4.75415e-07
2	0	0	0	1	13.1299	-0.130466	-0.130129	-0.00377496	2	-5.02527e-05	4.9123e-07
2	0	0	0	1	13.1498	-0.132472	-0.132131	-0.00387087	2	-5.03286e-05	5.11461e-07
2	0	0	1	1	13.1697	-0.134465	-0.134123	-0.00390057	2	-5.04058e-05	5.23155e-07
2	0	0	1	1	13.1897	-0.136464	-0.136118	-0.00397112	2	-5.04846e-05	5.40539e-07
2	0	0	1	1	13.2097	-0.138463	-0.138118	-0.00404428	2	-5.05649e-05	5.58589e-07
2	0	0	1	1	13.2297	-0.140462	-0.140124	-0.00413059	2	-5.06468e-05	5.78795e-07
2	0	0	1	1	13.2497	-0.142461	-0.142131	-0.00420744	2	-5.07302e-05	5.98006e-07
2	0	0	1	1	13.2697	-0.144461	-0.144129	-0.00428313	2	-5.08153e-05	6.17325e-07
2	0	0	1	1	13.2897	-0.14646	-0.146124	-0.00438463	2	-5.09022e-05	6.40698e-07
2	0	0	1	1	13.3097	-0.148459	-0.148126	-0.00449088	2	-5.09911e-05	6.65215e-07
2	0	0	1	1	13.3297	-0.150458	-0.150133	-0.00461767	2	-5.10824e-05	6.93263e-07
2	0	0	1	1	13.3497	-0.152457	-0.152137	-0.00473292	2	-5.11759e-05	7.20051e-07
2	0	0	1	1	13.3697	-0.154456	-0.15412	-0.00485668	2	-5.1272e-05	7.48511e-07
2	0	0	1	1	13.3897	-0.156456	-0.156122	-0.00500039	2	-5.13707e-05	7.80671e-07
2	0	0	1	1	13.4097	-0.158455	-0.158127	-0.00514859	2	-5.14723e-05	8.14131e-07
2	0	0	1	1	13.4297	-0.160454	-0.160124	-0.00530745	2	-5.15771e-05	8.49851e-07
2	0	0	1	1	13.4497	-0.162453	-0.162125	-0.00549093	2	-5.16854e-05	8.90217e-07
2	0	0	1	1	13.4697	-0.164452	-0.164122	-0.00567839	2	-5.17971e-05	9.31947e-07
2	0	0	1	1	13.4897	-0.166452	-0.166124	-0.00587093	2	-5.19129e-05	9.75302e-07
2	0	0	1	1	13.5097	-0.168451	-0.16814	-0.00608324	2	-5.20327e-05	1.02284e-06
2	0	0	1	1	13.5297	-0.17045	-0.170136	-0.00632295	2	-5.21568e-05	1.07576e-06
2	0	0	1	1	13.5497	-0.172449	-0.172133	-0.00655874	2	-5.22857e-05	1.12898e-06
2	0	0	1	1	13.5697	-0.174448	-0.174134	-0.0068145	2	-5.24195e-05	1.18664e-06
2	0	0	1	1	13.5897	-0.176447	-0.176135	-0.00706552	2	-5.25585e-05	1.24448e-06
2	0	0	1	1	13.6097	-0.178447	-0.178133	-0.0073361	2	-5.27029e-05	1.3068e-06
2	0	0	1	1	13.6297	-0.180446	-0.180137	-0.00766048	2	-5.2853e-05	1.37994e-06
2	0	0	0	1	13.6495	-0.182445	-0.182136	-0.00795396	2	-5.30081e-05	1.44871e-06
2	0	0	0	1	13.6695	-0.184444	-0.184139	-0.00825681	2	-5.31706e-05	1.5204e-06
2	0	0	0	1	13.6895	-0.186443	-0.186113	-0.00858953	2	-5.33392e-05	1.59863e-06
2	0	0	0	1	13.7095	-0.188443	-0.188125	-0.0089311	2	-5.35148e-05	1.68016e-06
2	0	0	0	1	13.7295	-0.190442	-0.190137	-0.00927573	2	-5.36971e-05	1.76366e-06
2	0	0	0	1	13.7495	-0.192441	-0.192148	-0.00961071	2	-5.38861e-05	1.84668e-06
2	0	0	0	1	13.7695	-0.19444	-0.19414	-0.00996458	2	-5.40822e-05	1.93453e-06
2	0	0	0	1	13.805	-0.197989	-0.197663	-0.0104321	2	-5.44467e-05	2.06204e-06
2	0	0	1	1	13.8405	-0.201537	-0.201192	-0.0109258	2	-5.48263e-05	2.19818e-06
2	0	0	1	1	13.8605	-0.203536	-0.203204	-0.0112599	2	-5.50532e-05	2.28805e-06
2	0	0	1	1	13.8805	-0.205536	-0.205192	-0.0115866	2	-5.52869e-05	2.37747e-06
2	0	0	1	1	13.9005	-0.207535	-0.207196	-0.0119145	2	-5.55271e-05	2.46863e-06
2	0	0	1	1	13.9205	-0.209534	-0.209192	-0.0122565	2	-5.57736e-05	2.56395e-06
2	0	0	1	1	13.9405	-0.211533	-0.211191	-0.0125397	2	-5.60262e-05	2.64827e-06
2	0	0	1	1	13.9605	-0.213532	-0.213209	-0.0128383	2	-5.62849e-05	2.73725e-06
2	0	0	1	1	13.9805	-0.215531	-0.215195	-0.0130786	2	-5.65493e-05	2.81446e-06
2	0	0	1	1	14.0005	-0.217531	-0.217209	-0.0133775	2	-5.68192e-05	2.90573e-06
2	0	0	1	1	14.0205	-0.21953	-0.219191	-0.0136231	2	-5.70941e-05	2.98605e-06
2	0	0	1	1	14.0405	-0.221529	-0.22119	-0.0138511	2	-5.73739e-05	3.06373e-06
2	0	0	1	1	14.0605	-0.223528	-0.223208	-0.0141074	2	-5.76581e-05	3.14889e-06
2	0	0	1	1	14.0805	-0.225527	-0.225191	-0.0142694	2	-5.79465e-05	3.21334e-06
2	0	0	1	1	14.1005	-0.227526	-0.227206	-0.0144578	2	-5.82391e-05	3.28489e-06
2	0	0	1	1	14.1204	-0.229523	-0.229208	-0.0146816	2	-5.8534e-05	3.36515e-06
2	0	0	0	1	14.1403	-0.231525	-0.23119	-0.0147876	2	-5.88322e-05	3.41875e-06
2	0	0	0	1	14.1603	-0.233524	-0.233185	-0.0149393	2	-5.9135e-05	3.48363e-06
2	0	0	0	1	14.1803	-0.235523	-0.235188	-0.0151363	2	-5.94405e-05	3.55987e-06
2	0	0	0	1	14.2003	-0.237522	-0.237189	-0.0152378	2	-5.97488e-05	3.61425e-06
2	0	0	0	1	14.2203	-0.239522	-0.239182	-0.0153343	2	-6.00594e-05	3.66769e-06
2	0	0	0	1	14.2403	-0.241521	-0.241184	-0.0154293	2	-6.03723e-05	3.7213e-06
2	0	0	0	1	14.2603	-0.24352	-0.243184	-0.0155487	2	-6.06872e-05	3.78119e-06
2	0	0	0	1	14.2803	-0.245519	-0.245173	-0.0156024	2	-6.10038e-05	3.82528e-06
2	0	0	0	1	14.3003	-0.247518	-0.247197	-0.0156969	2	-6.13221e-05	3.88022e-06
2	0	0	0	1	14.3203	-0.249517	-0.249183	-0.0157564	2	-6.16417e-05	3.92622e-06
2	0	0	0	1	14.3403	-0.251517	-0.251176	-0.0158291	2	-6.19626e-05	3.9759e-06
2	0	0	0	1	14.3603	-0.253516	-0.253189	-0.0158488	2	-6.22847e-05	4.01274e-06
2	0	0	0	1	14.3803	-0.255515	-0.255196	-0.0159188	2	-6.2608e-05	4.0624e-06
2	0	0	0	1	14.4003	-0.257514	-0.257177	-0.0159741	2	-6.2932e-05	4.10817e-06
2	0	0	0	1	14.4203	-0.259513	-0.25919	-0.0160168	2	-6.3257e-05	4.1514e-06
2	0	0	0	1	14.4403	-0.261513	-0.261175	-0.0160742	2	-6.35827e-05	4.19817e-06
2	0	0	0	1	14.4603	-0.263512	-0.26318	-0.0160713	2	-6.39089e-05	4.22965e-06
2	0	0	0	1	14.4803	-0.265511	-0.265179	-0.0161137	2	-6.42361e-05	4.27302e-06
2	0	0	0	1	14.5003	-0.26751	-0.267171	-0.0161601	2	-6.45638e-05	4.31751e-06
2	0	0	0	1	14.5203	-0.269509	-0.269187	-0.0161979	2	-6.48922e-05	4.36025e-06
2	0	0	0	1	14.5403	-0.271508	-0.271174	-0.0162073	2	-6.52212e-05	4.39499e-06
2	0	0	0	1	14.5603	-0.273508	-0.27318	-0.0162471	2	-6.55505e-05	4.43836e-06
2	0	0	0	1	14.5803	-0.275507	-0.275181	-0.0162839	2	-6.58806e-05	4.48102e-06
2	0	0	0	1	14.6003	-0.277506	-0.277182	-0.0163335	2	-6.62112e-05	4.52736e-06
2	0	0	1	1	14.6201	-0.279505	-0.279169	-0.0163474	2	-6.65393e-05	4.56369e-06
2	0	0	1	1	14.6401	-0.281504	-0.281175	-0.0163527	2	-6.68712e-05	4.59796e-06
2	0	0	1	1	14.6601	-0.283504	-0.283173	-0.0163806	2	-6.72036e-05	4.63855e-06
2	0	0	1	1	14.6801	-0.285503	-0.285162	-0.0164576	2	-6.75367e-05	4.6931e-06
2	0	0	1	1	14.7001	-0.287502	-0.287157	-0.0164682	2	-6.78704e-05	4.72895e-06
2	0	0	1	1	14.7201	-0.289501	-0.28916	-0.0165174	2	-6.82049e-05	4.77617e-06
2	0	0	1	1	14.7401	-0.2915	-0.29118	-0.0165872	2	-6.85403e-05	4.82985e-06
2	0	0	1	1	14.7601	-0.293499	-0.293175	-0.0165822	2	-6.88766e-05	4.86149e-06
2	0	0	1	1	14.7801	-0.295499	-0.295173	-0.0166043	2	-6.92136e-05	4.90114e-06
2	0	0	1	1	14.8001	-0.297498	-0.297173	-0.0166571	2	-6.95517e-05	4.95003e-06
2	0	0	1	1	14.8201	-0.299497	-0.299173	-0.0167128	2	-6.98907e-05	5.00002e-06
2	0	0	1	1	14.8401	-0.301496	-0.301149	-0.0167817	2	-7.02306e-05	5.05379e-06
2	0	0	1	1	14.8601	-0.303495	-0.303165	-0.0168408	2	-7.05719e-05	5.10553e-06
2	0	0	1	1	14.8801	-0.305494	-0.30516	-0.0169271	2	-7.09145e-05	5.16549e-06
2	0	0	1	1	14.9001	-0.307494	-0.307176	-0.0169794	2	-7.12586e-05	5.21568e-06
2	0	0	1	1	14.9201	-0.309493	-0.309174	-0.0170527	2	-7.16037e-05	5.27224e-06
2	0	0	1	1	14.9401	-0.311492	-0.311163	-0.0171207	2	-7.19504e-05	5.32733e-06
2	0	0	1	1	14.9601	-0.313491	-0.31317	-0.017167	2	-7.22984e-05	5.37618e-06
2	0	0	1	1	14.9801	-0.31549	-0.315177	-0.0172816	2	-7.26482e-05	5.44675e-06
2	0	0	1	1	15.0001	-0.31749	-0.317166	-0.0173419	2	-7.29997e-05	5.50027e-06
2	0	0	1	1	15.0201	-0.319489	-0.319169	-0.0174414	2	-7.3353e-05	5.56674e-06
2	0	0	1	1	15.0401	-0.321488	-0.321177	-0.0175749	2	-7.37082e-05	5.64464e-06
2	0	0	1	1	15.0601	-0.323487	-0.323176	-0.0176398	2	-7.40654e-05	5.70075e-06
2	0	0	1	1	15.0801	-0.325486	-0.325171	-0.017776	2	-7.44245e-05	5.78024e-06
2	0	0	0	1	15.0999	-0.327485	-0.327147	-0.0178387	2	-7.47821e-05	5.83587e-06
2	0	0	0	1	15.1199	-0.329485	-0.32916	-0.0180007	2	-7.51456e-05	5.9251e-06
2	0	0	0	1	15.1399	-0.331484	-0.331159	-0.0180739	2	-7.55113e-05	5.98534e-06
2	0	0	0	1	15.1599	-0.333483	-0.333158	-0.018211	2	-7.58793e-05	6.06714e-06
2	0	0	0	1	15.1799	-0.335482	-0.33516	-0.0183361	2	-7.62497e-05	6.14552e-06
2	0	0	0	1	15.1999	-0.337481	-0.337155	-0.0184246	2	-7.66227e-05	6.21194e-06
2	0	0	0	1	15.2199	-0.339481	-0.33915	-0.0185772	2	-7.69981e-05	6.30044e-06
2	0	0	0	1	15.2399	-0.34148	-0.341155	-0.0187299	2	-7.73765e-05	6.38981e-06
2	0	0	0	1	15.2599	-0.343479	-0.343153	-0.018879	2	-7.77577e-05	6.4784e-06
2	0	0	0	1	15.2799	-0.345478	-0.34515	-0.0190277	2	-7.81418e-05	6.5674e-06
2	0	0	0	1	15.2999	-0.347477	-0.347173	-0.0191747	2	-7.85288e-05	6.65693e-06
2	0	0	0	1	15.3199	-0.349476	-0.349151	-0.0192932	2	-7.89189e-05	6.73625e-06
2	0	0	0	1	15.3399	-0.351476	-0.351148	-0.0195093	2	-7.93122e-05	6.85066e-06
2	0	0	0	1	15.3599	-0.353475	-0.353146	-0.0196428	2	-7.97086e-05	6.93677e-06
2	0	0	0	1	15.3799	-0.355474	-0.355151	-0.019838	2	-8.01083e-05	7.04548e-06
2	0	0	0	1	15.3999	-0.357473	-0.357163	-0.019952	2	-8.05117e-05	7.12611e-06
2	0	0	0	1	15.4199	-0.359472	-0.359139	-0.0201721	2	-8.09184e-05	7.24457e-06
2	0	0	0	1	15.4399	-0.361471	-0.361149	-0.0203655	2	-8.13286e-05	7.35497e-06
2	0	0	0	1	15.4599	-0.363471	-0.363154	-0.0205515	2	-8.17426e-05	7.46335e-06
2	0	0	0	1	15.4799	-0.36547	-0.365151	-0.0207158	2	-8.21604e-05	7.56438e-06
2	0	0	0	1	15.4999	-0.367469	-0.36715	-0.020948	2	-8.2582e-05	7.69106e-06
2	0	0	0	1	15.5199	-0.369468	-0.369141	-0.0211318	2	-8.30076e-05	7.80062e-06
2	0	0	0	1	15.5399	-0.371467	-0.371133	-0.0212742	2	-8.34371e-05	7.89555e-06
2	0	0	0	1	15.5599	-0.373467	-0.37315	-0.0215469	2	-8.3871e-05	8.04022e-06
2	0	0	0	1	15.5798	-0.375461	-0.375148	-0.0218021	2	-8.43066e-05	8.17901e-06
2	0	0	1	1	15.5997	-0.377465	-0.377142	-0.0219512	2	-8.47468e-05	8.2787e-06
2	0	0	1	1	15.6197	-0.379464	-0.379143	-0.0222205	2	-8.51935e-05	8.42476e-06
2	0	0	1	1	15.6397	-0.381463	-0.381155	-0.0223988	2	-8.56445e-05	8.53743e-06
2	0	0	1	1	15.6597	-0.383462	-0.38315	-0.0226377	2	-8.61e-05	8.67365e-06
2	0	0	1	1	15.6797	-0.385462	-0.38514	-0.0228714	2	-8.65599e-05	8.8087e-06
2	0	0	1	1	15.6997	-0.387461	-0.387131	-0.0231063	2	-8.70247e-05	8.94517e-06
2	0	0	1	1	15.7197	-0.38946	-0.389127	-0.0233567	2	-8.74941e-05	9.08875e-06
2	0	0	1	1	15.7397	-0.391459	-0.391129	-0.0235636	2	-8.79683e-05	9.2164e-06
2	0	0	1	1	15.7597	-0.393458	-0.393131	-0.0237993	2	-8.84475e-05	9.35622e-06
2	0	0	1	1	15.7797	-0.395458	-0.395124	-0.0241199	2	-8.89317e-05	9.53036e-06
2	0	0	1	1	15.7997	-0.397457	-0.397128	-0.0243688	2	-8.9421e-05	9.67751e-06
2	0	0	1	1	15.8197	-0.399456	-0.399133	-0.0245476	2	-8.99152e-05	9.79776e-06
2	1	0	1	0	15.8313	-0.399456	-0.399072	-0.0221898	2	-9.01878e-05	8.85531e-06
2	1	0	1	0	15.8513	-0.397457	-0.397052	-0.0208098	2	-9.06112e-05	8.26256e-06
2	1	0	1	0	15.8713	-0.395458	-0.395072	-0.0200303	2	-9.10142e-05	7.91343e-06
2	1	0	1	0	15.8913	-0.393458	-0.393073	-0.0193771	2	-9.14027e-05	7.6166e-06
2	1	0	1	0	15.9113	-0.391459	-0.391074	-0.0187868	2	-9.1779e-05	7.34703e-06
2	1	0	1	0	15.9313	-0.38946	-0.389068	-0.0182461	2	-9.21443e-05	7.09897e-06
2	1	0	1	0	15.9513	-0.387461	-0.387069	-0.0177497	2	-9.24992e-05	6.87035e-06
2	1	0	1	0	15.9713	-0.385462	-0.38509	-0.0172729	2	-9.28444e-05	6.65163e-06
2	1	0	1	0	15.9913	-0.383462	-0.383089	-0.0168212	2	-9.31805e-05	6.44402e-06
2	1	0	1	0	16.0113	-0.381463	-0.381091	-0.016439	2	-9.35078e-05	6.26475e-06
2	1	0	1	0	16.0313	-0.379464	-0.379098	-0.0160149	2	-9.38267e-05	6.07121e-06
2	1	0	1	0	16.0513	-0.377465	-0.37708	-0.0155851	2	-9.41375e-05	5.87683e-06
2	1	0	1	0	16.0712	-0.375459	-0.375054	-0.0152009	2	-9.44389e-05	5.70115e-06
2	1	0	0	0	16.0911	-0.373467	-0.373076	-0.0148416	2	-9.47328e-05	5.53707e-06
2	1	0	0	0	16.1111	-0.371467	-0.371064	-0.0144856	2	-9.50207e-05	5.3751e-06
2	1	0	0	0	16.1311	-0.369468	-0.369071	-0.0141086	2	-9.53017e-05	5.20707e-06
2	1	0	0	0	16.1511	-0.367469	-0.367068	-0.0137837	2	-9.55756e-05	5.05956e-06
2	1	0	0	0	16.1711	-0.36547	-0.365079	-0.01344	2	-9.58429e-05	4.90666e-06
2	1	0	0	0	16.1911	-0.363471	-0.363083	-0.0131181	2	-9.61036e-05	4.76295e-06
2	1	0	0	0	16.2111	-0.361471	-0.361078	-0.0128289	2	-9.6358e-05	4.63222e-06
2	1	0	0	0	16.2311	-0.359472	-0.359075	-0.0124861	2	-9.6606e-05	4.48344e-06
2	1	0	0	0	16.2511	-0.357473	-0.357081	-0.012184	2	-9.68482e-05	4.35068e-06
2	1	0	0	0	16.2711	-0.355474	-0.355075	-0.0119029	2	-9.70842e-05	4.22642e-06
2	1	0	0	0	16.2911	-0.353475	-0.353076	-0.0116202	2	-9.73144e-05	4.1028e-06
2	1	0	0	0	16.3111	-0.351476	-0.351087	-0.0113585	2	-9.75389e-05	3.98784e-06
2	1	0	0	0	16.3311	-0.349476	-0.349082	-0.0110464	2	-9.7758e-05	3.8561e-06
2	1	0	0	0	16.3511	-0.347477	-0.347082	-0.0107939	2	-9.79714e-05	3.74638e-06
2	1	0	0	0	16.3711	-0.345478	-0.345101	-0.0105403	2	-9.81796e-05	3.63748e-06
2	1	0	0	0	16.3911	-0.343479	-0.34309	-0.010282	2	-9.83825e-05	3.52766e-06
2	1	0	0	0	16.4111	-0.34148	-0.341083	-0.0100051	2	-9.85802e-05	3.41258e-06
2	1	0	0	0	16.4311	-0.339481	-0.339083	-0.00973327	2	-9.8773e-05	3.30039e-06
2	1	0	0	0	16.4511	-0.337481	-0.337069	-0.0095546	2	-9.8961e-05	3.22056e-06
2	1	0	0	0	16.4711	-0.335482	-0.335078	-0.00926698	2	-9.91441e-05	3.10516e-06
2	1	0	0	0	16.4911	-0.333483	-0.333092	-0.00908179	2	-9.93225e-05	3.02507e-06
2	1	0	0	0	16.5111	-0.331484	-0.331098	-0.00882886	2	-9.94963e-05	2.92322e-06
2	1	0	0	0	16.5311	-0.329485	-0.329098	-0.00860442	2	-9.96655e-05	2.8317e-06
2	1	0	0	0	16.5511	-0.327485	-0.327108	-0.00840127	2	-9.98303e-05	2.74812e-06
2	1	0	1	0	16.5709	-0.325486	-0.325109	-0.00817846	2	-9.99887e-05	2.65889e-06
2	1	0	1	0	16.5909	-0.323487	-0.32311	-0.00797945	2	-0.000100145	2.57824e-06
2	1	0	1	0	16.6109	-0.321488	-0.321104	-0.00775853	2	-0.000100297	2.4913e-06
2	1	0	1	0	16.6309	-0.319489	-0.319116	-0.00754453	2	-0.000100444	2.40758e-06
2	1	0	1	0	16.6509	-0.31749	-0.317106	-0.00733572	2	-0.000100588	2.3262e-06
2	1	0	1	0	16.6709	-0.31549	-0.315112	-0.00713214	2	-0.000100727	2.24742e-06
2	1	0	1	0	16.6909	-0.313491	-0.313117	-0.00694464	2	-0.000100863	2.17449e-06
2	1	0	1	0	16.7109	-0.311492	-0.311111	-0.00671652	2	-0.000100994	2.08958e-06
2	1	0	1	0	16.7309	-0.309493	-0.309113	-0.00655133	2	-0.000101122	2.0251e-06
2	1	0	1	0	16.7509	-0.307494	-0.307132	-0.00633462	2	-0.000101246	1.94556e-06
2	1	0	1	0	16.7709	-0.305494	-0.305117	-0.00613357	2	-0.000101367	1.87146e-06
2	1	0	1	0	16.7909	-0.303495	-0.30311	-0.00600093	2	-0.000101483	1.81894e-06
2	1	0	1	0	16.8109	-0.301496	-0.301101	-0.0057847	2	-0.000101596	1.74178e-06
2	1	0	1	0	16.8309	-0.299497	-0.299081	-0.00563121	2	-0.000101705	1.68419e-06
2	1	0	1	0	16.8509	-0.297498	-0.297097	-0.00543166	2	-0.000101811	1.61373e-06
2	1	0	1	0	16.8709	-0.295499	-0.295107	-0.00529479	2	-0.000101913	1.56253e-06
2	1	0	1	0	16.8909	-0.293499	-0.293103	-0.00506174	2	-0.000102012	1.48361e-06
2	1	0	1	0	16.9109	-0.2915	-0.291103	-0.00492775	2	-0.000102107	1.43448e-06
2	1	0	0	0	16.9619	-0.286402	-0.286005	-0.00427431	2	-0.000102341	1.22248e-06
2	1	0	0	0	16.9819	-0.284403	-0.284026	-0.00410417	2	-0.000102425	1.16569e-06
2	1	0	0	0	17.0019	-0.282404	-0.282007	-0.00393022	2	-0.000102505	1.10835e-06
2	1	0	0	0	17.0219	-0.280405	-0.280029	-0.00377474	2	-0.000102582	1.05704e-06
2	1	0	0	0	17.0418	-0.278406	-0.278007	-0.00356326	2	-0.000102655	9.9061e-07
2	1	0	1	0	17.0617	-0.276406	-0.276022	-0.00340998	2	-0.000102724	9.41231e-07
2	1	0	1	0	17.0817	-0.274407	-0.274021	-0.00325627	2	-0.000102791	8.92286e-07
2	1	0	1	0	17.1017	-0.272408	-0.272011	-0.00307249	2	-0.000102854	8.3575e-07
2	1	0	1	0	17.1217	-0.270409	-0.270024	-0.00291057	2	-0.000102913	7.85925e-07
2	1	0	1	0	17.1417	-0.26841	-0.268022	-0.00273434	2	-0.000102969	7.32861e-07
2	1	0	1	0	17.1617	-0.26641	-0.266027	-0.00253875	2	-0.000103022	6.75378e-07
2	1	0	1	0	17.1817	-0.264411	-0.264024	-0.00235097	2	-0.00010307	6.20714e-07
2	1	0	1	0	17.2017	-0.262412	-0.262031	-0.00219521	2	-0.000103115	5.75211e-07
2	1	0	1	0	17.2217	-0.260413	-0.260024	-0.00198569	2	-0.000103157	5.16327e-07
2	1	0	1	0	17.2417	-0.258414	-0.258025	-0.00179734	2	-0.000103195	4.63759e-07
2	1	0	1	0	17.2617	-0.256415	-0.256028	-0.00160351	2	-0.000103228	4.10543e-07
2	1	0	1	0	17.2817	-0.254415	-0.254036	-0.00140053	2	-0.000103258	3.55787e-07
2	1	0	1	0	17.3017	-0.252416	-0.252024	-0.00118566	2	-0.000103284	2.98814e-07
2	1	0	1	0	17.3217	-0.250417	-0.250001	-0.000952918	2	-0.000103305	2.38231e-07
2	1	0	1	0	17.3417	-0.248418	-0.248028	-0.000750618	2	-0.000103322	1.86174e-07
2	1	0	1	0	17.3617	-0.246419	-0.246029	-0.000530675	2	-0.000103335	1.30561e-07
2	1	0	1	0	17.3817	-0.24442	-0.244019	-0.000291426	2	-0.000103343	7.11133e-08
2	1	0	1	0	17.4017	-0.24242	-0.242032	-3.74077e-05	2	-0.000103346	9.05386e-09
2	1	0	1	0	17.4217	-0.240421	-0.240031	0.00017969	2	-0.000103344	4.31313e-08
2	1	0	1	0	17.4417	-0.238422	-0.238028	0.000455083	2	-0.000103337	1.08322e-07
2	1	0	1	0	17.4617	-0.236423	-0.236011	0.000730502	2	-0.000103325	1.72407e-07
2	1	0	1	0	17.4817	-0.234424	-0.234035	0.00100092	2	-0.000103308	2.3425e-07
2	1	0	1	0	17.5017	-0.232424	-0.232025	0.001272	2	-0.000103285	2.95135e-07
2	1	0	1	0	17.5217	-0.230425	-0.230029	0.00156507	2	-0.000103257	3.6001e-07
2	1	0	0	0	17.5415	-0.228426	-0.228017	0.00187828	2	-0.000103222	4.2828e-07
2	1	0	0	0	17.5615	-0.226427	-0.22603	0.00217037	2	-0.000103181	4.9057e-07
2	1	0	0	0	17.5815	-0.224428	-0.22401	0.00248507	2	-0.000103135	5.56681e-07
2	1	0	0	0	17.6015	-0.222429	-0.222037	0.0028003	2	-0.000103082	6.21771e-07
2	1	0	0	0	17.6215	-0.220429	-0.22003	0.00313048	2	-0.000103022	6.88802e-07
2	1	0	0	0	17.6415	-0.21843	-0.218008	0.00347331	2	-0.000102956	7.57208e-07
2	1	0	0	0	17.6615	-0.216431	-0.216022	0.00379917	2	-0.000102883	8.20705e-07
2	1	0	0	0	17.6815	-0.214432	-0.214015	0.00414551	2	-0.000102803	8.87203e-07
2	1	0	0	0	17.7015	-0.212433	-0.212021	0.0044651	2	-0.000102717	9.46695e-07
2	1	0	0	0	17.7215	-0.210433	-0.210015	0.00481071	2	-0.000102624	1.01032e-06
2	1	0	0	0	17.7415	-0.208434	-0.208027	0.00510714	2	-0.000102525	1.06242e-06
2	1	0	0	0	17.7615	-0.206435	-0.206012	0.0054528	2	-0.000102419	1.12334e-06
2	1	0	0	0	17.7815	-0.204436	-0.20401	0.00576014	2	-0.000102307	1.17513e-06
2	1	0	0	0	17.8015	-0.202437	-0.202005	0.00606304	2	-0.000102188	1.22476e-06
2	1	0	0	0	17.8215	-0.200438	-0.200016	0.00635091	2	-0.000102064	1.27028e-06
2	1	0	0	0	17.8415	-0.198438	-0.198006	0.00662376	2	-0.000101934	1.31155e-06
2	1	0	0	0	17.8615	-0.196439	-0.195996	0.00688403	2	-0.000101799	1.34924e-06
2	1	0	0	0	17.8815	-0.19444	-0.194003	0.00711004	2	-0.000101659	1.37937e-06
2	1	0	0	0	17.9015	-0.192441	-0.19202	0.00731695	2	-0.000101514	1.405e-06
2	1	0	0	0	17.9215	-0.190442	-0.190008	0.00756076	2	-0.000101365	1.43661e-06
2	1	0	0	0	17.9415	-0.188443	-0.187988	0.00772401	2	-0.000101212	1.45202e-06
2	1	0	0	0	17.9615	-0.186443	-0.186007	0.00787947	2	-0.000101056	1.46564e-06
2	1	0	0	0	17.9815	-0.184444	-0.184001	0.00799349	2	-0.000100897	1.47081e-06
2	1	0	0	0	18.0015	-0.182445	-0.181995	0.00809615	2	-0.000100736	1.47346e-06
2	1	0	1	0	18.0213	-0.180446	-0.179998	0.00822876	2	-0.000100574	1.48116e-06
2	1	0	1	0	18.0413	-0.178447	-0.177991	0.00826799	2	-0.000100409	1.47162e-06
2	1	0	1	0	18.0613	-0.176447	-0.176005	0.00830967	2	-0.000100243	1.46255e-06
2	1	0	1	0	18.0813	-0.174448	-0.173996	0.0083505	2	-0.000100076	1.45296e-06
2	1	0	1	0	18.1013	-0.172449	-0.17201	0.00833627	2	-9.99093e-05	1.43392e-06
2	1	0	1	0	18.1213	-0.17045	-0.170001	0.00831491	2	-9.97428e-05	1.41354e-06
2	1	0	1	0	18.1413	-0.168451	-0.168	0.00829499	2	-9.95766e-05	1.39355e-06
2	1	0	1	0	18.1613	-0.166452	-0.16601	0.00823621	2	-9.9411e-05	1.36729e-06
2	1	0	1	0	18.1813	-0.164452	-0.163987	0.00820054	2	-9.92464e-05	1.34478e-06
2	1	0	1	0	18.2013	-0.162453	-0.161983	0.00811351	2	-9.90831e-05	1.31425e-06
2	1	0	1	0	18.2213	-0.160454	-0.159969	0.00803148	2	-9.89213e-05	1.28479e-06
2	1	0	1	0	18.2413	-0.158455	-0.157996	0.00793576	2	-9.87612e-05	1.25382e-06
2	1	0	1	0	18.2613	-0.156456	-0.156011	0.00785471	2	-9.86031e-05	1.22542e-06
2	1	0	1	0	18.2813	-0.154456	-0.153984	0.00775307	2	-9.84466e-05	1.19385e-06
2	1	0	1	0	18.3013	-0.152457	-0.152	0.00766482	2	-9.82923e-05	1.16505e-06
2	1	0	1	0	18.3213	-0.150458	-0.149993	0.00754872	2	-9.81401e-05	1.13226e-06
2	1	0	1	0	18.3413	-0.148459	-0.147986	0.00744472	2	-9.79897e-05	1.10172e-06
2	1	0	1	0	18.3613	-0.14646	-0.145997	0.00733687	2	-9.78418e-05	1.07116e-06
2	1	0	1	0	18.3813	-0.144461	-0.143984	0.00722823	2	-9.7696e-05	1.04075e-06
2	1	0	1	0	18.4013	-0.142461	-0.141984	0.00713379	2	-9.75522e-05	1.01288e-06
2	1	0	1	0	18.4213	-0.140462	-0.139999	0.00703353	2	-9.74107e-05	9.84689e-07
2	1	0	1	0	18.4413	-0.138463	-0.137993	0.00691045	2	-9.72712e-05	9.53597e-07
2	1	0	1	0	18.4613	-0.136464	-0.135997	0.00681886	2	-9.71338e-05	9.27346e-07
2	1	0	1	0	18.4813	-0.134465	-0.133986	0.00670969	2	-9.69983e-05	8.99002e-07
2	1	0	1	0	18.5012	-0.13247	-0.132	0.0066388	2	-9.68656e-05	8.76319e-07
2	1	0	0	0	18.5211	-0.130466	-0.129999	0.0065301	2	-9.67345e-05	8.48904e-07
2	1	0	0	0	18.5411	-0.128467	-0.127987	0.00642782	2	-9.66047e-05	8.22678e-07
2	1	0	0	0	18.5611	-0.126468	-0.126006	0.00634315	2	-9.64768e-05	7.99272e-07
2	1	0	0	0	18.5811	-0.124469	-0.124005	0.00626728	2	-9.63507e-05	7.77172e-07
2	1	0	0	0	18.6011	-0.12247	-0.122003	0.0061909	2	-9.6226e-05	7.55307e-07
2	1	0	0	0	18.6211	-0.12047	-0.120004	0.00607445	2	-9.61032e-05	7.2896e-07
2	1	0	0	0	18.6411	-0.118471	-0.118008	0.00602112	2	-9.59818e-05	7.10538e-07
2	1	0	0	0	18.6611	-0.116472	-0.116004	0.00595555	2	-9.58619e-05	6.90866e-07
2	1	0	0	0	18.6811	-0.114473	-0.114014	0.00588763	2	-9.57433e-05	6.71271e-07
2	1	0	0	0	18.7011	-0.112474	-0.112006	0.00582616	2	-9.5626e-05	6.52563e-07
2	1	0	0	0	18.7211	-0.110475	-0.110028	0.00576583	2	-9.551e-05	6.34404e-07
2	1	0	0	0	18.7411	-0.108475	-0.108014	0.00570887	2	-9.53953e-05	6.16636e-07
2	1	0	0	0	18.7611	-0.106476	-0.106023	0.00564713	2	-9.52818e-05	5.98725e-07
2	1	0	0	0	18.7811	-0.104477	-0.104022	0.00559627	2	-9.51692e-05	5.82133e-07
2	1	0	0	0	18.8011	-0.102478	-0.102026	0.00553814	2	-9.50577e-05	5.65035e-07
2	1	0	0	0	18.8211	-0.100479	-0.100022	0.00551688	2	-9.49472e-05	5.51809e-07
2	1	0	0	0	18.8411	-0.0984795	-0.0980178	0.00544311	2	-9.48375e-05	5.33522e-07
2	1	0	0	0	18.8611	-0.0964803	-0.0960222	0.00540054	2	-9.47288e-05	5.18572e-07
2	1	0	0	0	18.8811	-0.0944811	-0.0940157	0.00535405	2	-9.4621e-05	5.03364e-07
2	1	0	0	0	18.9011	-0.0924819	-0.0920136	0.0053365	2	-9.45141e-05	4.9103e-07
2	1	0	0	0	18.9211	-0.0904828	-0.0900129	0.00528606	2	-9.44078e-05	4.75813e-07
2	1	0	0	0	18.9411	-0.0884836	-0.0880223	0.00525181	2	-9.43023e-05	4.62277e-07
2	1	0	0	0	18.9611	-0.0864844	-0.0860188	0.00520484	2	-9.41973e-05	4.47714e-07
2	1	0	0	0	18.9811	-0.0844852	-0.0840233	0.005181	2	-9.40931e-05	4.35325e-07
2	1	0	1	0	19.0009	-0.0824861	-0.0820327	0.00515721	2	-9.39904e-05	4.2306e-07
2	1	0	1	0	19.0209	-0.0804869	-0.0800419	0.00512773	2	-9.38873e-05	4.10433e-07
2	1	0	1	0	19.0409	-0.0784877	-0.0780333	0.00511451	2	-9.37846e-05	3.99102e-07
2	1	0	1	0	19.0609	-0.0764885	-0.0760347	0.00507954	2	-9.36826e-05	3.86221e-07
2	1	0	1	0	19.0809	-0.0744893	-0.0740354	0.00505825	2	-9.3581e-05	3.7449e-07
2	1	0	1	0	19.1009	-0.0724902	-0.0720404	0.00504976	2	-9.34799e-05	3.63786e-07
2	1	0	1	0	19.1209	-0.070491	-0.0700347	0.00502601	2	-9.33792e-05	3.51995e-07
2	1	0	1	0	19.1409	-0.0684918	-0.0680469	0.00500032	2	-9.3279e-05	3.40256e-07
2	1	0	1	0	19.1609	-0.0664926	-0.0660379	0.00498985	2	-9.3179e-05	3.29519e-07
2	1	0	1	0	19.1809	-0.0644934	-0.0640477	0.00496007	2	-9.30793e-05	3.17681e-07
2	1	0	1	0	19.2009	-0.0624943	-0.0620406	0.00496568	2	-9.29799e-05	3.08074e-07
2	1	0	1	0	19.2209	-0.0604951	-0.0600295	0.00494441	2	-9.28808e-05	2.9681e-07
2	1	0	1	0	19.2409	-0.0584959	-0.0580474	0.0049177	2	-9.27819e-05	2.85459e-07
2	1	0	1	0	19.2609	-0.0564967	-0.0560453	0.00489857	2	-9.26834e-05	2.74542e-07
2	1	0	1	0	19.2809	-0.0544975	-0.0540437	0.0049	2	-9.25851e-05	2.64814e-07
2	1	0	1	0	19.3009	-0.0524984	-0.0520387	0.00489711	2	-9.2487e-05	2.5484e-07
2	1	0	1	0	19.3209	-0.0504992	-0.0500494	0.00488801	2	-9.23891e-05	2.44642e-07
2	1	0	1	0	19.3409	-0.0485	-0.0480497	0.00487488	2	-9.22913e-05	2.34237e-07
2	1	0	1	0	19.3609	-0.0465008	-0.0460549	0.00487672	2	-9.21937e-05	2.24597e-07
2	1	0	1	0	19.3809	-0.0445016	-0.0440359	0.00486735	2	-9.20961e-05	2.14338e-07
2	1	0	1	0	19.4009	-0.0425025	-0.0420353	0.00486133	2	-9.19986e-05	2.04347e-07
2	1	0	1	0	19.4209	-0.0405033	-0.0400509	0.00484718	2	-9.19014e-05	1.94134e-07
2	1	0	1	0	19.4409	-0.0385041	-0.0380438	0.0048467	2	-9.18041e-05	1.84387e-07
2	1	0	1	0	19.4609	-0.0365049	-0.0360405	0.00485107	2	-9.17069e-05	1.74835e-07
2	1	0	1	0	19.4808	-0.0344967	-0.0340431	0.00487672	2	-9.16101e-05	1.66018e-07
2	1	0	0	0	19.5007	-0.0325066	-0.0320549	0.00484692	2	-9.15134e-05	1.55367e-07
2	1	0	0	0	19.5207	-0.0305074	-0.0300498	0.00483442	2	-9.14164e-05	1.45274e-07
2	1	0	0	0	19.5407	-0.0285082	-0.028065	0.00484511	2	-9.13195e-05	1.35978e-07
2	1	0	0	0	19.5607	-0.026509	-0.0260581	0.004829	2	-9.12224e-05	1.25834e-07
2	1	0	0	0	19.5807	-0.0245099	-0.0240522	0.00483017	2	-9.11255e-05	1.16176e-07
2	1	0	0	0	19.6007	-0.0225107	-0.0220491	0.00484688	2	-9.10285e-05	1.06869e-07
2	1	0	0	0	19.6207	-0.0205115	-0.0200537	0.00483277	2	-9.09314e-05	9.69148e-08
2	1	0	0	0	19.6407	-0.0185123	-0.0180618	0.00484339	2	-9.08345e-05	8.74804e-08
2	1	0	0	0	19.6607	-0.0165131	-0.0160613	0.00484211	2	-9.07374e-05	7.77705e-08
2	1	0	0	0	19.6807	-0.014514	-0.0140645	0.00485687	2	-9.06403e-05	6.83096e-08
2	1	0	0	0	19.7007	-0.0125148	-0.0120742	0.00486099	2	-9.0543e-05	5.86924e-08
2	1	0	0	0	19.7207	-0.0105156	-0.0100509	0.00486205	2	-9.04457e-05	4.88681e-08
2	1	0	0	0	19.7407	-0.00851643	-0.00805993	0.00487398	2	-9.03482e-05	3.9284e-08
2	1	0	0	0	19.7607	-0.00651725	-0.00606023	0.00487508	2	-9.02507e-05	2.95441e-08
2	1	0	0	0	19.7807	-0.00451807	-0.00405989	0.00488559	2	-9.01533e-05	1.9835e-08
2	1	0	0	0	19.8007	-0.00251889	-0.00206718	0.00487032	2	-9.00555e-05	1.00679e-08
2	1	0	0	0	19.8207	-0.000519712	-6.2185e-05	0.00487578	2	-8.99578e-05	3.032e-10
2	1	0	0	0	19.8407	0.00147947	0.00193667	0.00489767	2	-8.98599e-05	9.48515e-09
2	1	0	0	0	19.8607	0.00347864	0.00393467	0.00490705	2	-8.97618e-05	1.93076e-08
2	1	0	0	0	19.8807	0.00547782	0.00594052	0.0049067	2	-8.96636e-05	2.91483e-08
2	1	0	0	0	19.9007	0.007477	0.00794149	0.00489846	2	-8.95653e-05	3.89011e-08
2	1	0	0	0	19.9207	0.00947618	0.00993398	0.00491119	2	-8.9467e-05	4.87876e-08
2	1	0	0	0	19.9407	0.0114754	0.0119347	0.00493229	2	-8.93684e-05	5.88657e-08
2	1	0	0	0	19.9606	0.0134677	0.0139223	0.00493462	2	-8.927e-05	6.87011e-08
2	1	0	1	0	19.966	0.0140243	0.014508	0.0050656	2	-8.92432e-05	7.34919e-08