File: TAP_Report/Data/MB_Suscept/6_bw_noanti_3_C01_2.mpt
EC-Lab ASCII FILE
Nb header lines : 56

Cyclic Voltammetry

Run on channel : 1 (SN 0696)
User :
Electrode connection : standard
Ewe ctrl range : min = -2.50 V, max = 2.50 V
Ewe,I filtering : 50 kHz
Safety Limits :
	Do not start on E overload
Channel : Floating
Acquisition started on : 09/12/2016 16:18:05
Saved on :
	File : 6_bw_noanti_3_C01.mpr
	Directory : \\userfs\st659\w2k\EC-Lab\Data\Meth_Blue 12-09-16\
	Host : 144.32.136.43
Device : SP-300 (SN 0182)
Address : USB
EC-Lab for windows v10.44 (software)
Internet server v10.44 (firmware)
Command interpretor v10.44 (firmware)
Electrode material :
Initial state :
Electrolyte :
Comments :
Cable : standard
Reference electrode : SCE Saturated Calomel Electrode (0.241 V)
Electrode surface area : 0.001 cm²
Characteristic mass : 0.001 g
Equivalent Weight : 0.000 g/eq.
Density : 0.000 g/cm3
Ei (V)              0.000
vs.                 Eoc
dE/dt               100.000
dE/dt unit          mV/s
E1 (V)              0.100
vs.                 Ref
Step percent        50
N                   10
E range min (V)     -2.500
E range max (V)     2.500
I Range             Auto
I Range min         Unset
I Range max         Unset
I Range init        Unset
Bandwidth           8
E2 (V)              -0.400
vs.                 Ref
nc cycles           2
Reverse Scan        1
Ef (V)              0.000
vs.                 Eoc

mode	ox/red	error	control changes	counter inc.	time/s	control/V	Ewe/V	<I>/mA	cycle number	(Q-Qo)/C	P/W
2	1	0	1	1	9.9658	-0.00606669	-0.00561961	0.0047236	2	-3.24947e-05	2.65448e-08
2	1	0	0	1	9.9813	-0.00451732	-0.00408412	0.00476602	2	-3.24172e-05	1.9465e-08
2	1	0	0	1	10.0013	-0.00251814	-0.00207552	0.00474465	2	-3.23174e-05	9.84759e-09
2	1	0	0	1	10.0213	-0.000518954	-8.7049e-05	0.00471026	2	-3.22175e-05	4.10023e-10
2	1	0	0	1	10.0413	0.00148023	0.00192304	0.00473039	2	-3.21177e-05	9.09671e-09
2	1	0	0	1	10.0613	0.00347941	0.00390747	0.00471329	2	-3.20179e-05	1.8417e-08
2	1	0	0	1	10.0813	0.0054786	0.00591756	0.00472514	2	-3.19182e-05	2.79613e-08
2	1	0	0	1	10.1013	0.00747778	0.00793252	0.00471835	2	-3.18185e-05	3.74284e-08
2	1	0	0	1	10.1213	0.00947696	0.00991866	0.0046977	2	-3.1719e-05	4.65949e-08
2	1	0	0	1	10.1413	0.0114761	0.011929	0.00474626	2	-3.16194e-05	5.66179e-08
2	1	0	0	1	10.1613	0.0134753	0.0139312	0.00471891	2	-3.15199e-05	6.57401e-08
2	1	0	0	1	10.1813	0.0154745	0.0159269	0.00475148	2	-3.14201e-05	7.56762e-08
2	1	0	0	1	10.2013	0.0174737	0.0179189	0.00477939	2	-3.13206e-05	8.56415e-08
2	1	0	0	1	10.2213	0.0194729	0.0199288	0.00477112	2	-3.1221e-05	9.50828e-08
2	1	0	0	1	10.2413	0.0214721	0.0219258	0.00473966	2	-3.11212e-05	1.03921e-07
2	1	0	0	1	10.2613	0.0234712	0.0239168	0.00475706	2	-3.10216e-05	1.13774e-07
2	1	0	0	1	10.2813	0.0254704	0.0259167	0.00476011	2	-3.09218e-05	1.23366e-07
2	1	0	0	1	10.3013	0.0274696	0.0279244	0.00476438	2	-3.08221e-05	1.33043e-07
2	1	0	0	1	10.3213	0.0294688	0.0299065	0.00473586	2	-3.07222e-05	1.41633e-07
2	1	0	0	1	10.3413	0.031468	0.0319211	0.00474384	2	-3.06221e-05	1.51428e-07
2	1	0	0	1	10.3613	0.0334672	0.0339021	0.00477285	2	-3.0522e-05	1.6181e-07
2	1	0	0	1	10.3813	0.0354664	0.0359027	0.00476081	2	-3.04218e-05	1.70926e-07
2	1	0	0	1	10.4013	0.0374655	0.0379043	0.00475812	2	-3.03214e-05	1.80353e-07
2	1	0	0	1	10.4213	0.0394647	0.0399036	0.00477843	2	-3.02209e-05	1.90676e-07
2	1	0	0	1	10.4413	0.0414639	0.0419124	0.00476522	2	-3.01202e-05	1.99722e-07
2	1	0	1	1	10.4611	0.0434631	0.0439074	0.0048142	2	-3.00201e-05	2.11379e-07
2	1	0	1	1	10.4811	0.0454623	0.0459052	0.00484406	2	-2.99191e-05	2.22368e-07
2	1	0	1	1	10.5011	0.0474615	0.0478888	0.00483116	2	-2.9818e-05	2.31358e-07
2	1	0	1	1	10.5211	0.0494606	0.0498997	0.00485052	2	-2.97167e-05	2.42039e-07
2	1	0	1	1	10.5411	0.0514598	0.0518979	0.00485276	2	-2.96152e-05	2.51848e-07
2	1	0	1	1	10.5611	0.053459	0.0538983	0.00486114	2	-2.95135e-05	2.62007e-07
2	1	0	1	1	10.5811	0.0554582	0.0559014	0.00486178	2	-2.94116e-05	2.7178e-07
2	1	0	1	1	10.6011	0.0574574	0.0578905	0.00486238	2	-2.93094e-05	2.81486e-07
2	1	0	1	1	10.6211	0.0594566	0.0599005	0.00488427	2	-2.92071e-05	2.9257e-07
2	1	0	1	1	10.6411	0.0614557	0.0618945	0.00489374	2	-2.91045e-05	3.02896e-07
2	1	0	1	1	10.6611	0.0634549	0.0638972	0.00486511	2	-2.90017e-05	3.10867e-07
2	1	0	1	1	10.6811	0.0654541	0.065899	0.00492668	2	-2.88985e-05	3.24663e-07
2	1	0	1	1	10.7011	0.0674533	0.0679112	0.00494659	2	-2.87951e-05	3.35929e-07
2	1	0	1	1	10.7211	0.0694525	0.0699147	0.00496609	2	-2.86914e-05	3.47203e-07
2	1	0	1	1	10.7411	0.0714517	0.0718956	0.00494791	2	-2.85875e-05	3.55733e-07
2	1	0	1	1	10.7611	0.0734508	0.0738914	0.00498367	2	-2.84833e-05	3.6825e-07
2	1	0	1	1	10.7811	0.07545	0.0758983	0.00498246	2	-2.83787e-05	3.78161e-07
2	1	0	1	1	10.8011	0.0774492	0.0778747	0.00497264	2	-2.82738e-05	3.87243e-07
2	1	0	1	1	10.8211	0.0794484	0.0798761	0.00505858	2	-2.81687e-05	4.0406e-07
2	1	0	1	1	10.8411	0.0814476	0.0818775	0.00504177	2	-2.80631e-05	4.12808e-07
2	1	0	1	1	10.8611	0.0834468	0.0838649	0.00502423	2	-2.79571e-05	4.21357e-07
2	1	0	1	1	10.8811	0.0854459	0.0858701	0.00503929	2	-2.78509e-05	4.32724e-07
2	1	0	1	1	10.9011	0.0874451	0.0879029	0.00511784	2	-2.77442e-05	4.49873e-07
2	1	0	1	1	10.9211	0.0894443	0.0898547	0.00509632	2	-2.76372e-05	4.57928e-07
2	1	0	1	1	10.941	0.0914412	0.0918699	0.00514492	2	-2.753e-05	4.72663e-07
2	1	0	0	1	10.9609	0.0934427	0.0938751	0.00513786	2	-2.74223e-05	4.82317e-07
2	1	0	0	1	10.9809	0.0954419	0.0958744	0.00514495	2	-2.73138e-05	4.93268e-07
2	1	0	0	1	11.0009	0.097441	0.0978775	0.00520449	2	-2.72051e-05	5.09402e-07
2	1	0	0	1	11.0209	0.0994402	0.0998746	0.00520752	2	-2.70957e-05	5.20099e-07
2	0	0	1	1	11.0325	0.0994402	0.0998203	0.00319355	2	-2.70462e-05	3.18781e-07
2	0	0	1	1	11.0525	0.097441	0.097813	0.00230245	2	-2.69978e-05	2.2521e-07
2	0	0	1	1	11.0725	0.0954419	0.0958479	0.00182958	2	-2.69614e-05	1.75361e-07
2	0	0	1	1	11.0925	0.0934427	0.0938282	0.00153159	2	-2.69326e-05	1.43706e-07
2	0	0	1	1	11.1124	0.091439	0.091822	0.00130056	2	-2.69094e-05	1.1942e-07
2	0	0	0	1	11.1323	0.0894443	0.0898051	0.00112817	2	-2.68907e-05	1.01316e-07
2	0	0	0	1	11.1523	0.0874451	0.0878132	0.000921666	2	-2.68754e-05	8.09345e-08
2	0	0	0	1	11.1723	0.0854459	0.0858095	0.000788081	2	-2.68633e-05	6.76249e-08
2	0	0	0	1	11.1923	0.0834468	0.0838185	0.000669031	2	-2.6854e-05	5.60772e-08
2	0	0	0	1	11.2278	0.0798982	0.0802706	0.000276642	2	-2.68432e-05	2.22062e-08
2	0	0	1	1	11.2633	0.0763497	0.0767299	2.13113e-06	2	-2.68375e-05	1.63522e-10
2	0	0	1	1	11.2833	0.0743505	0.0747177	-0.000101807	2	-2.68386e-05	7.60681e-09
2	0	0	1	1	11.3033	0.0723513	0.0727167	-0.000185697	2	-2.68416e-05	1.35032e-08
2	0	0	1	1	11.3233	0.0703521	0.0707206	-0.000267574	2	-2.68461e-05	1.8923e-08
2	0	0	1	1	11.3433	0.0683529	0.0687203	-0.000340022	2	-2.68522e-05	2.33664e-08
2	0	0	1	1	11.3633	0.0663537	0.0667223	-0.000395294	2	-2.68598e-05	2.63749e-08
2	0	0	1	1	11.3833	0.0643546	0.0647236	-0.00046354	2	-2.68688e-05	3.0002e-08
2	0	0	1	1	11.4033	0.0623554	0.0627307	-0.00052923	2	-2.68788e-05	3.3199e-08
2	0	0	1	1	11.4233	0.0603562	0.0607291	-0.000576969	2	-2.68903e-05	3.50388e-08
2	0	0	1	1	11.4433	0.058357	0.0587273	-0.00062782	2	-2.69028e-05	3.68702e-08
2	0	0	1	1	11.4633	0.0563578	0.0567327	-0.000692295	2	-2.69164e-05	3.92758e-08
2	0	0	1	1	11.4833	0.0543586	0.0547165	-0.000753689	2	-2.69312e-05	4.12392e-08
2	0	0	1	1	11.5033	0.0523595	0.0527138	-0.000796737	2	-2.69467e-05	4.1999e-08
2	0	0	1	1	11.5233	0.0503603	0.0507266	-0.000847029	2	-2.69634e-05	4.29669e-08
2	0	0	1	1	11.5433	0.0483611	0.0487258	-0.000885721	2	-2.6981e-05	4.31575e-08
2	0	0	1	1	11.5633	0.0463619	0.0467189	-0.000937391	2	-2.69993e-05	4.37939e-08
2	0	0	1	1	11.5833	0.0443627	0.0447409	-0.0009719	2	-2.70185e-05	4.34836e-08
2	0	0	1	1	11.6032	0.042359	0.0427299	-0.00105035	2	-2.70386e-05	4.48814e-08
2	0	0	0	1	11.6231	0.0403644	0.0407351	-0.00105595	2	-2.70595e-05	4.30142e-08
2	0	0	0	1	11.6431	0.0383652	0.0387371	-0.00109934	2	-2.70813e-05	4.25851e-08
2	0	0	0	1	11.6631	0.036366	0.0367226	-0.00113066	2	-2.71035e-05	4.15209e-08
2	0	0	0	1	11.6831	0.0343668	0.0347273	-0.00115987	2	-2.71267e-05	4.02791e-08
2	0	0	0	1	11.7031	0.0323676	0.0327342	-0.00120046	2	-2.71504e-05	3.92962e-08
2	0	0	0	1	11.7231	0.0303684	0.0307381	-0.00123187	2	-2.71748e-05	3.78653e-08
2	0	0	0	1	11.7431	0.0283692	0.0287293	-0.00125973	2	-2.71999e-05	3.61911e-08
2	0	0	0	1	11.7631	0.0263701	0.0267376	-0.00127389	2	-2.72256e-05	3.40607e-08
2	0	0	0	1	11.7831	0.0243709	0.0247407	-0.0013356	2	-2.72519e-05	3.30436e-08
2	0	0	0	1	11.8031	0.0223717	0.0227372	-0.00135803	2	-2.72788e-05	3.08778e-08
2	0	0	0	1	11.8231	0.0203725	0.0207381	-0.00137151	2	-2.73063e-05	2.84424e-08
2	0	0	0	1	11.8431	0.0183733	0.0187382	-0.00140499	2	-2.73344e-05	2.6327e-08
2	0	0	0	1	11.8631	0.0163741	0.016733	-0.00144449	2	-2.7363e-05	2.41706e-08
2	0	0	0	1	11.8831	0.014375	0.014749	-0.00148331	2	-2.73923e-05	2.18773e-08
2	0	0	0	1	11.9031	0.0123758	0.0127298	-0.001493	2	-2.74221e-05	1.90055e-08
2	0	0	0	1	11.9231	0.0103766	0.0107345	-0.00152588	2	-2.74524e-05	1.63796e-08
2	0	0	0	1	11.9431	0.00837741	0.00873863	-0.0015436	2	-2.74832e-05	1.3489e-08
2	0	0	0	1	11.9631	0.00637823	0.00673321	-0.00157398	2	-2.75144e-05	1.05979e-08
2	0	0	0	1	11.9831	0.00437905	0.00473521	-0.00158732	2	-2.75461e-05	7.5163e-09
2	0	0	0	1	12.0031	0.00237986	0.00273593	-0.00160917	2	-2.75785e-05	4.40258e-09
2	0	0	0	1	12.0231	0.00037383	0.000730933	-0.00164958	2	-2.76114e-05	1.20574e-09
2	0	0	0	1	12.0431	-0.0016185	-0.00127449	-0.00167163	2	-2.76446e-05	2.13047e-09
2	0	0	0	1	12.0631	-0.00361769	-0.00325999	-0.00168834	2	-2.76785e-05	5.50397e-09
2	0	0	0	1	12.0831	-0.00561687	-0.00525079	-0.00170928	2	-2.77126e-05	8.97507e-09
2	0	0	1	1	12.1029	-0.00761606	-0.00726299	-0.00174531	2	-2.77471e-05	1.26761e-08
2	0	0	1	1	12.1229	-0.00961524	-0.00925337	-0.00177746	2	-2.77823e-05	1.64474e-08
2	0	0	1	1	12.1429	-0.0116144	-0.0112717	-0.00178875	2	-2.78179e-05	2.01623e-08
2	0	0	1	1	12.1629	-0.0136136	-0.0132591	-0.0018046	2	-2.78539e-05	2.39274e-08
2	0	0	1	1	12.1829	-0.0156128	-0.0152637	-0.00183262	2	-2.78904e-05	2.79725e-08
2	0	0	1	1	12.2029	-0.017612	-0.0172664	-0.00183643	2	-2.79273e-05	3.17085e-08
2	0	0	1	1	12.2229	-0.0196112	-0.0192527	-0.00186524	2	-2.79645e-05	3.5911e-08
2	0	0	1	1	12.2429	-0.0216104	-0.0212516	-0.00189802	2	-2.80023e-05	4.0336e-08
2	0	0	1	1	12.2629	-0.0236095	-0.0232644	-0.00191442	2	-2.80405e-05	4.45379e-08
2	0	0	1	1	12.2829	-0.0256087	-0.025252	-0.00193036	2	-2.8079e-05	4.87454e-08
2	0	0	1	1	12.3029	-0.0276079	-0.0272519	-0.0019605	2	-2.8118e-05	5.34274e-08
2	0	0	1	1	12.3229	-0.0296071	-0.0292512	-0.00197433	2	-2.81574e-05	5.77516e-08
2	0	0	1	1	12.3429	-0.0316063	-0.0312422	-0.0019943	2	-2.81971e-05	6.23064e-08
2	0	0	1	1	12.3629	-0.0336055	-0.0332428	-0.00201995	2	-2.82372e-05	6.71489e-08
2	0	0	1	1	12.3829	-0.0356046	-0.0352524	-0.00203316	2	-2.8278e-05	7.16738e-08
2	0	0	1	1	12.4029	-0.0376038	-0.0372479	-0.00205505	2	-2.83191e-05	7.65462e-08
2	0	0	1	1	12.4229	-0.039603	-0.0392527	-0.00206933	2	-2.83606e-05	8.12269e-08
2	0	0	1	1	12.4429	-0.0416022	-0.0412528	-0.00209286	2	-2.84026e-05	8.63363e-08
2	0	0	1	1	12.4629	-0.0436014	-0.0432531	-0.00209914	2	-2.84448e-05	9.07945e-08
2	0	0	1	1	12.4829	-0.0456006	-0.0452448	-0.00212768	2	-2.84875e-05	9.62662e-08
2	0	0	1	1	12.5029	-0.0475998	-0.0472441	-0.00216503	2	-2.85306e-05	1.02285e-07
2	0	0	1	1	12.5229	-0.0495989	-0.04923	-0.00218614	2	-2.85742e-05	1.07624e-07
2	0	0	1	1	12.5429	-0.0515981	-0.0512284	-0.00219582	2	-2.8618e-05	1.12489e-07
2	0	0	1	1	12.5629	-0.0535973	-0.053247	-0.00221966	2	-2.86624e-05	1.1819e-07
2	0	0	1	1	12.5828	-0.055601	-0.0552543	-0.00226911	2	-2.87071e-05	1.25378e-07
2	0	0	0	1	12.6027	-0.0575957	-0.0572339	-0.00226616	2	-2.87523e-05	1.29701e-07
2	0	0	0	1	12.6227	-0.0595949	-0.0592361	-0.00228908	2	-2.87979e-05	1.35596e-07
2	0	0	0	1	12.6427	-0.061594	-0.0612418	-0.00230551	2	-2.8844e-05	1.41194e-07
2	0	0	0	1	12.6627	-0.0635932	-0.0632366	-0.00232403	2	-2.88906e-05	1.46963e-07
2	0	0	0	1	12.6827	-0.0655924	-0.0652412	-0.00235483	2	-2.89374e-05	1.53632e-07
2	0	0	0	1	12.7027	-0.0675916	-0.0672493	-0.0023719	2	-2.89848e-05	1.59509e-07
2	0	0	0	1	12.7227	-0.0695908	-0.0692476	-0.00238505	2	-2.90326e-05	1.65159e-07
2	0	0	0	1	12.7427	-0.07159	-0.0712367	-0.00241553	2	-2.90808e-05	1.72075e-07
2	0	0	0	1	12.7627	-0.0735892	-0.0732372	-0.00244335	2	-2.91295e-05	1.78944e-07
2	0	0	0	1	12.7827	-0.0755883	-0.0752384	-0.00245084	2	-2.91787e-05	1.84397e-07
2	0	0	0	1	12.8027	-0.0775875	-0.0772311	-0.00247602	2	-2.92282e-05	1.91226e-07
2	0	0	0	1	12.8227	-0.0795867	-0.0792418	-0.00250382	2	-2.92784e-05	1.98407e-07
2	0	0	0	1	12.8427	-0.0815859	-0.081229	-0.00254114	2	-2.93289e-05	2.06415e-07
2	0	0	0	1	12.8627	-0.0835851	-0.0832128	-0.0025575	2	-2.93799e-05	2.12817e-07
2	0	0	0	1	12.8827	-0.0855843	-0.085218	-0.00256843	2	-2.94315e-05	2.18876e-07
2	0	0	0	1	12.9027	-0.0875834	-0.0872109	-0.00263019	2	-2.94836e-05	2.29381e-07
2	0	0	0	1	12.9227	-0.0895826	-0.0892172	-0.0026395	2	-2.95364e-05	2.35489e-07
2	0	0	0	1	12.9427	-0.0915818	-0.0912445	-0.00268519	2	-2.95897e-05	2.45008e-07
2	0	0	0	1	12.9627	-0.093581	-0.093234	-0.00269349	2	-2.96436e-05	2.51125e-07
2	0	0	0	1	12.9827	-0.0955802	-0.0952167	-0.0027306	2	-2.96979e-05	2.59999e-07
2	0	0	0	1	13.0027	-0.0975794	-0.0972213	-0.00276997	2	-2.97529e-05	2.693e-07
2	0	0	0	1	13.0227	-0.0995786	-0.0992144	-0.00280783	2	-2.98087e-05	2.78577e-07
2	0	0	0	1	13.0427	-0.101578	-0.101223	-0.00284538	2	-2.98651e-05	2.88018e-07
2	0	0	0	1	13.0627	-0.103577	-0.103232	-0.00286753	2	-2.99223e-05	2.9602e-07
2	0	0	1	1	13.0825	-0.105576	-0.105229	-0.00291808	2	-2.99799e-05	3.07065e-07
2	0	0	1	1	13.1025	-0.107575	-0.107252	-0.00294411	2	-3.00386e-05	3.1576e-07
2	0	0	1	1	13.1225	-0.109574	-0.109221	-0.00298417	2	-3.00981e-05	3.25935e-07
2	0	0	1	1	13.1425	-0.111574	-0.111223	-0.00303056	2	-3.01584e-05	3.37068e-07
2	0	0	1	1	13.1625	-0.113573	-0.11322	-0.00308627	2	-3.02197e-05	3.49428e-07
2	0	0	1	1	13.1825	-0.115572	-0.115226	-0.00312951	2	-3.02821e-05	3.606e-07
2	0	0	1	1	13.2025	-0.117571	-0.117235	-0.00318701	2	-3.03455e-05	3.73628e-07
2	0	0	1	1	13.2225	-0.11957	-0.119227	-0.00324648	2	-3.041e-05	3.87069e-07
2	0	0	1	1	13.2425	-0.12157	-0.121235	-0.00329306	2	-3.04757e-05	3.99233e-07
2	0	0	1	1	13.2625	-0.123569	-0.123225	-0.00338799	2	-3.05426e-05	4.17483e-07
2	0	0	1	1	13.2825	-0.125568	-0.125227	-0.0034471	2	-3.0611e-05	4.31669e-07
2	0	0	1	1	13.3025	-0.127567	-0.127229	-0.00352036	2	-3.06808e-05	4.47892e-07
2	0	0	1	1	13.3225	-0.129566	-0.129233	-0.0036159	2	-3.07524e-05	4.67294e-07
2	0	0	1	1	13.3425	-0.131566	-0.131228	-0.00368579	2	-3.08256e-05	4.83678e-07
2	0	0	1	1	13.3625	-0.133565	-0.13322	-0.00377871	2	-3.09007e-05	5.03399e-07
2	0	0	1	1	13.3825	-0.135564	-0.135234	-0.00390686	2	-3.09777e-05	5.28341e-07
2	0	0	1	1	13.4025	-0.137563	-0.137221	-0.00401275	2	-3.10571e-05	5.50632e-07
2	0	0	1	1	13.4225	-0.139562	-0.139229	-0.00414498	2	-3.11387e-05	5.77103e-07
2	0	0	1	1	13.4425	-0.141561	-0.141229	-0.00426255	2	-3.1223e-05	6.01996e-07
2	0	0	1	1	13.4625	-0.143561	-0.143231	-0.00440126	2	-3.13099e-05	6.30396e-07
2	0	0	1	1	13.4825	-0.14556	-0.145234	-0.00455055	2	-3.13998e-05	6.60894e-07
2	0	0	1	1	13.5025	-0.147559	-0.147229	-0.00471827	2	-3.14927e-05	6.94667e-07
2	0	0	1	1	13.5225	-0.149558	-0.149232	-0.00489315	2	-3.15891e-05	7.30215e-07
2	0	0	1	1	13.5425	-0.151557	-0.151228	-0.00509895	2	-3.16891e-05	7.71105e-07
2	0	0	1	1	13.5624	-0.153559	-0.153236	-0.00531451	2	-3.17927e-05	8.14373e-07
2	0	0	0	1	13.5823	-0.155556	-0.155216	-0.00548557	2	-3.19003e-05	8.51447e-07
2	0	0	0	1	13.6023	-0.157555	-0.157223	-0.00572879	2	-3.20127e-05	9.00698e-07
2	0	0	0	1	13.6223	-0.159554	-0.159231	-0.00596415	2	-3.21297e-05	9.4968e-07
2	0	0	0	1	13.6423	-0.161553	-0.161211	-0.00620891	2	-3.22516e-05	1.00095e-06
2	0	0	0	1	13.6623	-0.163552	-0.16322	-0.00647116	2	-3.23787e-05	1.05622e-06
2	0	0	0	1	13.6823	-0.165552	-0.165247	-0.00676909	2	-3.25113e-05	1.11857e-06
2	0	0	0	1	13.7023	-0.167551	-0.167238	-0.00703877	2	-3.26492e-05	1.17715e-06
2	0	0	0	1	13.7223	-0.16955	-0.169246	-0.00733028	2	-3.27932e-05	1.24062e-06
2	0	0	0	1	13.7423	-0.171549	-0.171237	-0.00762071	2	-3.29429e-05	1.30495e-06
2	0	0	0	1	13.7623	-0.173548	-0.173222	-0.00793036	2	-3.30987e-05	1.37372e-06
2	0	0	0	1	13.7823	-0.175548	-0.175239	-0.00826344	2	-3.32609e-05	1.44807e-06
2	0	0	0	1	13.8023	-0.177547	-0.177243	-0.00856466	2	-3.34293e-05	1.51803e-06
2	0	0	0	1	13.8223	-0.179546	-0.179233	-0.00888929	2	-3.36041e-05	1.59326e-06
2	0	0	0	1	13.8423	-0.181545	-0.181228	-0.00919922	2	-3.37851e-05	1.66716e-06
2	0	0	0	1	13.8623	-0.183544	-0.183248	-0.00952547	2	-3.39726e-05	1.74553e-06
2	0	0	0	1	13.8823	-0.185543	-0.185236	-0.00983334	2	-3.41663e-05	1.82149e-06
2	0	0	0	1	13.9023	-0.187543	-0.187251	-0.0101321	2	-3.4366e-05	1.89725e-06
2	0	0	1	1	13.9533	-0.192641	-0.192321	-0.0106123	2	-3.48942e-05	2.04097e-06
2	0	0	1	1	13.9733	-0.19464	-0.194337	-0.0108675	2	-3.51137e-05	2.11194e-06
2	0	0	1	1	13.9933	-0.196639	-0.196308	-0.011107	2	-3.53384e-05	2.18039e-06
2	0	0	1	1	14.0133	-0.198638	-0.198319	-0.0113521	2	-3.5568e-05	2.25134e-06
2	0	0	1	1	14.0333	-0.200637	-0.200329	-0.0115868	2	-3.58022e-05	2.32116e-06
2	0	0	1	1	14.0532	-0.202641	-0.202321	-0.0118131	2	-3.60397e-05	2.39003e-06
2	0	0	0	1	14.0731	-0.204636	-0.20433	-0.0120039	2	-3.62815e-05	2.45274e-06
2	0	0	0	1	14.0931	-0.206635	-0.206322	-0.0121559	2	-3.65279e-05	2.50804e-06
2	0	0	0	1	14.1131	-0.208634	-0.208313	-0.012309	2	-3.67777e-05	2.56413e-06
2	0	0	0	1	14.1331	-0.210633	-0.210324	-0.0124627	2	-3.70305e-05	2.62121e-06
2	0	0	0	1	14.1531	-0.212632	-0.212311	-0.0126133	2	-3.72861e-05	2.67794e-06
2	0	0	0	1	14.1731	-0.214632	-0.214302	-0.0126697	2	-3.75444e-05	2.71514e-06
2	0	0	0	1	14.1931	-0.216631	-0.216319	-0.0128479	2	-3.7805e-05	2.77925e-06
2	0	0	0	1	14.2131	-0.21863	-0.218314	-0.0129016	2	-3.80675e-05	2.8166e-06
2	0	0	0	1	14.2331	-0.220629	-0.220321	-0.0130302	2	-3.83319e-05	2.87082e-06
2	0	0	0	1	14.2531	-0.222628	-0.222311	-0.0130779	2	-3.85977e-05	2.90736e-06
2	0	0	0	1	14.2731	-0.224628	-0.224304	-0.0131074	2	-3.88647e-05	2.94004e-06
2	0	0	0	1	14.2931	-0.226627	-0.22632	-0.0131984	2	-3.9133e-05	2.98707e-06
2	0	0	0	1	14.3131	-0.228626	-0.22832	-0.0132464	2	-3.94022e-05	3.02443e-06
2	0	0	0	1	14.3331	-0.230625	-0.230303	-0.0132827	2	-3.9672e-05	3.05905e-06
2	0	0	0	1	14.3531	-0.232624	-0.232295	-0.0133016	2	-3.99426e-05	3.0899e-06
2	0	0	0	1	14.3731	-0.234623	-0.234303	-0.0132912	2	-4.02136e-05	3.11418e-06
2	0	0	0	1	14.3931	-0.236623	-0.236278	-0.013297	2	-4.04848e-05	3.14179e-06
2	0	0	0	1	14.4131	-0.238622	-0.238296	-0.0133754	2	-4.07562e-05	3.18731e-06
2	0	0	0	1	14.4331	-0.240621	-0.240295	-0.0133619	2	-4.10278e-05	3.2108e-06
2	0	0	0	1	14.4531	-0.24262	-0.24231	-0.0133302	2	-4.12995e-05	3.23003e-06
2	0	0	0	1	14.4731	-0.244619	-0.244308	-0.0133167	2	-4.15711e-05	3.25338e-06
2	0	0	0	1	14.4931	-0.246619	-0.246302	-0.0132973	2	-4.18425e-05	3.27516e-06
2	0	0	0	1	14.5131	-0.248618	-0.248301	-0.0132913	2	-4.21135e-05	3.30023e-06
2	0	0	0	1	14.5331	-0.250617	-0.250302	-0.0132473	2	-4.23842e-05	3.31583e-06
2	0	0	1	1	14.5529	-0.252616	-0.252309	-0.0132805	2	-4.26524e-05	3.3508e-06
2	0	0	1	1	14.5729	-0.254615	-0.254295	-0.0132647	2	-4.29225e-05	3.37315e-06
2	0	0	1	1	14.5929	-0.256615	-0.2563	-0.0132206	2	-4.31921e-05	3.38843e-06
2	0	0	1	1	14.6129	-0.258614	-0.258306	-0.0132084	2	-4.34613e-05	3.41181e-06
2	0	0	1	1	14.6329	-0.260613	-0.260297	-0.0131868	2	-4.37299e-05	3.43247e-06
2	0	0	1	1	14.6529	-0.262612	-0.262297	-0.0131301	2	-4.39978e-05	3.44398e-06
2	0	0	1	1	14.6729	-0.264611	-0.264293	-0.0131592	2	-4.42654e-05	3.4779e-06
2	0	0	1	1	14.6929	-0.26661	-0.26628	-0.013127	2	-4.45325e-05	3.49546e-06
2	0	0	1	1	14.7129	-0.26861	-0.268302	-0.0130812	2	-4.47992e-05	3.50972e-06
2	0	0	1	1	14.7329	-0.270609	-0.270284	-0.0130751	2	-4.50651e-05	3.53398e-06
2	0	0	1	1	14.7529	-0.272608	-0.272294	-0.0129744	2	-4.53306e-05	3.53286e-06
2	0	0	1	1	14.7729	-0.274607	-0.274272	-0.0129622	2	-4.55953e-05	3.55516e-06
2	0	0	1	1	14.7929	-0.276606	-0.276292	-0.0129426	2	-4.58596e-05	3.57595e-06
2	0	0	1	1	14.8129	-0.278606	-0.278284	-0.0129305	2	-4.61235e-05	3.59833e-06
2	0	0	1	1	14.8329	-0.280605	-0.280263	-0.0128656	2	-4.63868e-05	3.60576e-06
2	0	0	1	1	14.8529	-0.282604	-0.282273	-0.0129051	2	-4.66495e-05	3.64275e-06
2	0	0	1	1	14.8729	-0.284603	-0.284278	-0.0128369	2	-4.6912e-05	3.64923e-06
2	0	0	1	1	14.8929	-0.286602	-0.286274	-0.0128502	2	-4.71739e-05	3.67869e-06
2	0	0	1	1	14.9129	-0.288601	-0.28827	-0.0127992	2	-4.74353e-05	3.68961e-06
2	0	0	1	1	14.9329	-0.290601	-0.290275	-0.0128138	2	-4.76965e-05	3.71954e-06
2	0	0	1	1	14.9529	-0.2926	-0.292261	-0.0128096	2	-4.79572e-05	3.74376e-06
2	0	0	1	1	14.9729	-0.294599	-0.294278	-0.0127356	2	-4.82176e-05	3.7478e-06
2	0	0	1	1	14.9929	-0.296598	-0.296278	-0.0127507	2	-4.84778e-05	3.77777e-06
2	0	0	1	1	15.0129	-0.298597	-0.298271	-0.0127242	2	-4.87376e-05	3.79526e-06
2	0	0	1	1	15.0328	-0.300599	-0.300278	-0.0127452	2	-4.8996e-05	3.8271e-06
2	0	0	0	1	15.0527	-0.302596	-0.302281	-0.0127408	2	-4.92543e-05	3.85129e-06
2	0	0	0	1	15.0727	-0.304595	-0.304291	-0.0127549	2	-4.95136e-05	3.88118e-06
2	0	0	0	1	15.0927	-0.306594	-0.306288	-0.0126991	2	-4.97728e-05	3.88959e-06
2	0	0	0	1	15.1127	-0.308593	-0.308296	-0.0126911	2	-5.00318e-05	3.91263e-06
2	0	0	0	1	15.1327	-0.310592	-0.310289	-0.012711	2	-5.02907e-05	3.94407e-06
2	0	0	0	1	15.1527	-0.312592	-0.312282	-0.012728	2	-5.05494e-05	3.97474e-06
2	0	0	0	1	15.1727	-0.314591	-0.314285	-0.0126975	2	-5.08081e-05	3.99065e-06
2	0	0	0	1	15.1927	-0.31659	-0.316287	-0.0127395	2	-5.1067e-05	4.02932e-06
2	0	0	0	1	15.2127	-0.318589	-0.318273	-0.0126884	2	-5.13258e-05	4.03838e-06
2	0	0	0	1	15.2327	-0.320588	-0.320272	-0.0126996	2	-5.15848e-05	4.06731e-06
2	0	0	0	1	15.2527	-0.322588	-0.322264	-0.012661	2	-5.18439e-05	4.08019e-06
2	0	0	0	1	15.2727	-0.324587	-0.324278	-0.0127445	2	-5.21032e-05	4.13277e-06
2	0	0	0	1	15.2927	-0.326586	-0.32627	-0.0127424	2	-5.23626e-05	4.15748e-06
2	0	0	0	1	15.3127	-0.328585	-0.328277	-0.0127614	2	-5.26222e-05	4.18928e-06
2	0	0	0	1	15.3327	-0.330584	-0.330272	-0.0127544	2	-5.28821e-05	4.21243e-06
2	0	0	0	1	15.3527	-0.332584	-0.332269	-0.0127438	2	-5.31423e-05	4.23435e-06
2	0	0	0	1	15.3727	-0.334583	-0.334262	-0.012772	2	-5.34028e-05	4.2692e-06
2	0	0	0	1	15.3927	-0.336582	-0.336253	-0.0127981	2	-5.36638e-05	4.30339e-06
2	0	0	0	1	15.4127	-0.338581	-0.338249	-0.0128245	2	-5.3925e-05	4.33789e-06
2	0	0	0	1	15.4327	-0.34058	-0.340254	-0.0128427	2	-5.41868e-05	4.36977e-06
2	0	0	0	1	15.4527	-0.342579	-0.342263	-0.012895	2	-5.44491e-05	4.41348e-06
2	0	0	0	1	15.4727	-0.344579	-0.344264	-0.0129332	2	-5.4712e-05	4.45242e-06
2	0	0	0	1	15.4927	-0.346578	-0.346272	-0.0129343	2	-5.49753e-05	4.47879e-06
2	0	0	0	1	15.5127	-0.348577	-0.348271	-0.0129806	2	-5.52393e-05	4.52077e-06
2	0	0	1	1	15.5325	-0.350576	-0.350262	-0.0130343	2	-5.55016e-05	4.56541e-06
2	0	0	1	1	15.5525	-0.352575	-0.352258	-0.0130189	2	-5.57669e-05	4.58602e-06
2	0	0	1	1	15.5725	-0.354575	-0.354253	-0.0130887	2	-5.6033e-05	4.6367e-06
2	0	0	1	1	15.5925	-0.356574	-0.356267	-0.0131086	2	-5.62998e-05	4.67017e-06
2	0	0	1	1	15.6125	-0.358573	-0.35824	-0.0131594	2	-5.65673e-05	4.71421e-06
2	0	0	1	1	15.6325	-0.360572	-0.360245	-0.0132137	2	-5.68357e-05	4.76017e-06
2	0	0	1	1	15.6525	-0.362571	-0.362263	-0.0132285	2	-5.7105e-05	4.7922e-06
2	0	0	1	1	15.6725	-0.36457	-0.364248	-0.0132862	2	-5.7375e-05	4.83946e-06
2	0	0	1	1	15.6925	-0.36657	-0.366241	-0.0133445	2	-5.76459e-05	4.88729e-06
2	0	0	1	1	15.7125	-0.368569	-0.368236	-0.0133741	2	-5.79179e-05	4.92483e-06
2	0	0	1	1	15.7325	-0.370568	-0.370246	-0.0134368	2	-5.81911e-05	4.97493e-06
2	0	0	1	1	15.7525	-0.372567	-0.372253	-0.0134953	2	-5.84651e-05	5.02368e-06
2	0	0	1	1	15.7725	-0.374566	-0.374254	-0.0135386	2	-5.87403e-05	5.06687e-06
2	0	0	1	1	15.7925	-0.376566	-0.376241	-0.0135965	2	-5.90165e-05	5.11558e-06
2	0	0	1	1	15.8125	-0.378565	-0.378226	-0.0136311	2	-5.92937e-05	5.15561e-06
2	0	0	1	1	15.8325	-0.380564	-0.380241	-0.0137301	2	-5.95724e-05	5.22075e-06
2	0	0	1	1	15.8525	-0.382563	-0.382248	-0.0137732	2	-5.98522e-05	5.26475e-06
2	0	0	1	1	15.8725	-0.384562	-0.384242	-0.0138384	2	-6.01331e-05	5.31731e-06
2	0	0	1	1	15.8925	-0.386561	-0.386235	-0.013873	2	-6.04155e-05	5.35825e-06
2	0	0	1	1	15.9125	-0.388561	-0.388228	-0.0139676	2	-6.06992e-05	5.42262e-06
2	0	0	1	1	15.9325	-0.39056	-0.390213	-0.0140432	2	-6.09842e-05	5.47983e-06
2	0	0	1	1	15.9525	-0.392559	-0.392227	-0.014158	2	-6.12706e-05	5.55314e-06
2	0	0	1	1	15.9725	-0.394558	-0.394216	-0.0141841	2	-6.15586e-05	5.59159e-06
2	0	0	1	1	15.9925	-0.396557	-0.396229	-0.0142624	2	-6.18481e-05	5.65117e-06
2	0	0	1	1	16.0124	-0.398557	-0.398229	-0.0143668	2	-6.21377e-05	5.72125e-06
2	1	0	1	0	16.0274	-0.400006	-0.399656	-0.0140417	2	-6.23565e-05	5.61185e-06
2	1	0	0	0	16.0428	-0.398452	-0.398061	-0.0111801	2	-6.25338e-05	4.45034e-06
2	1	0	1	0	16.0627	-0.396457	-0.396054	-0.0105409	2	-6.2745e-05	4.17477e-06
2	1	0	1	0	16.0827	-0.394458	-0.39406	-0.0100017	2	-6.29454e-05	3.94125e-06
2	1	0	1	0	16.1027	-0.392459	-0.392083	-0.00965298	2	-6.31374e-05	3.78477e-06
2	1	0	1	0	16.1227	-0.39046	-0.39006	-0.0093445	2	-6.33221e-05	3.64492e-06
2	1	0	1	0	16.1427	-0.388461	-0.388063	-0.00902866	2	-6.35009e-05	3.50369e-06
2	1	0	1	0	16.1627	-0.386462	-0.386072	-0.00877035	2	-6.36738e-05	3.38598e-06
2	1	0	1	0	16.1827	-0.384462	-0.384077	-0.00849185	2	-6.38417e-05	3.26152e-06
2	1	0	1	0	16.2027	-0.382463	-0.382084	-0.00829851	2	-6.40047e-05	3.17073e-06
2	1	0	1	0	16.2227	-0.380464	-0.380085	-0.00802613	2	-6.4163e-05	3.05061e-06
2	1	0	1	0	16.2427	-0.378465	-0.378086	-0.0078089	2	-6.43171e-05	2.95244e-06
2	1	0	1	0	16.2627	-0.376466	-0.376079	-0.007669	2	-6.44672e-05	2.88415e-06
2	1	0	1	0	16.2827	-0.374466	-0.374083	-0.00743485	2	-6.46132e-05	2.78125e-06
2	1	0	1	0	16.3027	-0.372467	-0.372075	-0.00726682	2	-6.47554e-05	2.7038e-06
2	1	0	1	0	16.3227	-0.370468	-0.37007	-0.00710974	2	-6.4894e-05	2.6311e-06
2	1	0	1	0	16.3427	-0.368469	-0.368073	-0.00691272	2	-6.5029e-05	2.54438e-06
2	1	0	1	0	16.3627	-0.36647	-0.366078	-0.00671875	2	-6.51605e-05	2.45959e-06
2	1	0	1	0	16.3827	-0.364471	-0.36408	-0.00658626	2	-6.52889e-05	2.39793e-06
2	1	0	1	0	16.4027	-0.362471	-0.362091	-0.00639793	2	-6.54142e-05	2.31663e-06
2	1	0	1	0	16.4227	-0.360472	-0.36007	-0.00626032	2	-6.55362e-05	2.25415e-06
2	1	0	1	0	16.4427	-0.358473	-0.358092	-0.00615511	2	-6.56553e-05	2.2041e-06
2	1	0	1	0	16.4627	-0.356474	-0.356082	-0.0060079	2	-6.57714e-05	2.1393e-06
2	1	0	1	0	16.4827	-0.354475	-0.354087	-0.00584021	2	-6.58846e-05	2.06794e-06
2	1	0	1	0	16.5027	-0.352475	-0.352073	-0.00567315	2	-6.59949e-05	1.99736e-06
2	1	0	1	0	16.5227	-0.350476	-0.350076	-0.0055653	2	-6.61024e-05	1.94828e-06
2	1	0	0	0	16.5425	-0.348477	-0.3481	-0.00540548	2	-6.62061e-05	1.88164e-06
2	1	0	0	0	16.5625	-0.346478	-0.346096	-0.00527688	2	-6.63083e-05	1.82631e-06
2	1	0	0	0	16.5825	-0.344479	-0.344087	-0.00515068	2	-6.6408e-05	1.77229e-06
2	1	0	0	0	16.6025	-0.342479	-0.342076	-0.00504808	2	-6.6505e-05	1.72682e-06
2	1	0	0	0	16.6225	-0.34048	-0.340085	-0.0049043	2	-6.65996e-05	1.66788e-06
2	1	0	0	0	16.6425	-0.338481	-0.338086	-0.00479009	2	-6.66919e-05	1.61946e-06
2	1	0	1	0	16.6935	-0.333383	-0.332985	-0.0042983	2	-6.6923e-05	1.43127e-06
2	1	0	1	0	16.7135	-0.331384	-0.330999	-0.00418825	2	-6.70075e-05	1.38631e-06
2	1	0	1	0	16.7335	-0.329385	-0.329007	-0.00405674	2	-6.70898e-05	1.3347e-06
2	1	0	1	0	16.7535	-0.327386	-0.32699	-0.003963	2	-6.71697e-05	1.29586e-06
2	1	0	1	0	16.7735	-0.325386	-0.32499	-0.00385994	2	-6.72476e-05	1.25444e-06
2	1	0	1	0	16.7935	-0.323387	-0.32302	-0.00372644	2	-6.73233e-05	1.20371e-06
2	1	0	1	0	16.8135	-0.321388	-0.321001	-0.00363045	2	-6.73969e-05	1.16538e-06
2	1	0	1	0	16.8335	-0.319389	-0.31902	-0.00352721	2	-6.74683e-05	1.12525e-06
2	1	0	1	0	16.8535	-0.31739	-0.317	-0.00342361	2	-6.75375e-05	1.08528e-06
2	1	0	1	0	16.8735	-0.315391	-0.315015	-0.00331042	2	-6.76047e-05	1.04283e-06
2	1	0	1	0	16.8935	-0.313391	-0.313018	-0.0032185	2	-6.767e-05	1.00745e-06
2	1	0	1	0	16.9135	-0.311392	-0.311015	-0.00311435	2	-6.77332e-05	9.68608e-07
2	1	0	1	0	16.9335	-0.309393	-0.309014	-0.00301197	2	-6.77945e-05	9.30743e-07
2	1	0	1	0	16.9535	-0.307394	-0.307023	-0.00292682	2	-6.78538e-05	8.98601e-07
2	1	0	1	0	16.9735	-0.305395	-0.305009	-0.00281813	2	-6.79111e-05	8.59555e-07
2	1	0	1	0	16.9935	-0.303395	-0.303023	-0.00272493	2	-6.79663e-05	8.25715e-07
2	1	0	1	0	17.0135	-0.301396	-0.301015	-0.0026288	2	-6.80197e-05	7.91308e-07
2	1	0	0	0	17.0333	-0.299397	-0.298999	-0.00252856	2	-6.80704e-05	7.56037e-07
2	1	0	0	0	17.0533	-0.297398	-0.297013	-0.0024498	2	-6.812e-05	7.27622e-07
2	1	0	0	0	17.0733	-0.295399	-0.295012	-0.00234919	2	-6.81677e-05	6.93039e-07
2	1	0	0	0	17.0933	-0.293399	-0.293025	-0.00224936	2	-6.82135e-05	6.59119e-07
2	1	0	0	0	17.1133	-0.2914	-0.291022	-0.00215591	2	-6.82574e-05	6.27418e-07
2	1	0	0	0	17.1333	-0.289401	-0.289021	-0.00205987	2	-6.82994e-05	5.95346e-07
2	1	0	0	0	17.1533	-0.287402	-0.287007	-0.00196555	2	-6.83396e-05	5.64124e-07
2	1	0	0	0	17.1733	-0.285403	-0.28503	-0.00187839	2	-6.83779e-05	5.35397e-07
2	1	0	0	0	17.1933	-0.283404	-0.283012	-0.00177253	2	-6.84144e-05	5.01646e-07
2	1	0	0	0	17.2133	-0.281404	-0.281016	-0.00168481	2	-6.8449e-05	4.73459e-07
2	1	0	0	0	17.2333	-0.279405	-0.279009	-0.00158287	2	-6.84815e-05	4.41637e-07
2	1	0	0	0	17.2533	-0.277406	-0.277003	-0.00150091	2	-6.85123e-05	4.15756e-07
2	1	0	0	0	17.2733	-0.275407	-0.275012	-0.00138651	2	-6.85411e-05	3.81306e-07
2	1	0	0	0	17.2933	-0.273408	-0.273027	-0.0013056	2	-6.8568e-05	3.56465e-07
2	1	0	0	0	17.3133	-0.271408	-0.271019	-0.00121302	2	-6.85928e-05	3.2875e-07
2	1	0	0	0	17.3333	-0.269409	-0.269009	-0.00110588	2	-6.86156e-05	2.97493e-07
2	1	0	0	0	17.3533	-0.26741	-0.267008	-0.000981574	2	-6.86364e-05	2.62088e-07
2	1	0	0	0	17.3733	-0.265411	-0.265021	-0.000897363	2	-6.86552e-05	2.3782e-07
2	1	0	0	0	17.3933	-0.263412	-0.263017	-0.000777617	2	-6.86717e-05	2.04526e-07
2	1	0	0	0	17.4133	-0.261413	-0.261028	-0.000675996	2	-6.86862e-05	1.76454e-07
2	1	0	0	0	17.4333	-0.259413	-0.259019	-0.000559973	2	-6.86984e-05	1.45044e-07
2	1	0	0	0	17.4533	-0.257414	-0.257014	-0.000439632	2	-6.87083e-05	1.12992e-07
2	1	0	0	0	17.4733	-0.255415	-0.255023	-0.000336987	2	-6.87159e-05	8.59395e-08
2	1	0	0	0	17.4933	-0.253416	-0.253021	-0.000200189	2	-6.87211e-05	5.06522e-08
2	1	0	0	0	17.5132	-0.251414	-0.250999	-1.85855e-05	2	-6.87234e-05	4.66493e-09
2	1	0	1	0	17.5331	-0.249417	-0.249026	7.23064e-05	2	-6.87232e-05	1.80062e-08
2	1	0	1	0	17.5531	-0.247418	-0.247016	0.000183154	2	-6.87204e-05	4.5242e-08
2	1	0	1	0	17.5731	-0.245419	-0.245024	0.000350298	2	-6.87148e-05	8.58316e-08
2	1	0	1	0	17.5931	-0.24342	-0.24303	0.000494645	2	-6.87063e-05	1.20214e-07
2	1	0	1	0	17.6131	-0.241421	-0.241017	0.000667604	2	-6.86946e-05	1.60904e-07
2	1	0	1	0	17.6331	-0.239422	-0.239035	0.00081361	2	-6.86798e-05	1.94481e-07
2	1	0	1	0	17.6531	-0.237422	-0.237023	0.000981449	2	-6.86616e-05	2.32626e-07
2	1	0	1	0	17.6731	-0.235423	-0.235038	0.00116651	2	-6.86399e-05	2.74176e-07
2	1	0	1	0	17.6931	-0.233424	-0.233044	0.00135668	2	-6.86146e-05	3.16166e-07
2	1	0	1	0	17.7131	-0.231425	-0.231031	0.00155931	2	-6.85852e-05	3.60248e-07
2	1	0	1	0	17.7331	-0.229426	-0.229043	0.00176286	2	-6.85519e-05	4.03771e-07
2	1	0	1	0	17.7531	-0.227426	-0.227041	0.00197418	2	-6.85143e-05	4.48219e-07
2	1	0	1	0	17.7731	-0.225427	-0.225061	0.00222018	2	-6.84722e-05	4.99674e-07
2	1	0	1	0	17.7931	-0.223428	-0.223045	0.00245552	2	-6.84252e-05	5.47691e-07
2	1	0	1	0	17.8131	-0.221429	-0.221052	0.00270451	2	-6.83735e-05	5.97838e-07
2	1	0	1	0	17.8331	-0.21943	-0.219051	0.0029846	2	-6.83166e-05	6.5378e-07
2	1	0	1	0	17.8531	-0.21743	-0.217034	0.00326264	2	-6.82541e-05	7.08101e-07
2	1	0	1	0	17.8731	-0.215431	-0.215034	0.00354824	2	-6.81859e-05	7.62994e-07
2	1	0	1	0	17.8931	-0.213432	-0.213026	0.00383124	2	-6.81118e-05	8.16152e-07
2	1	0	1	0	17.9131	-0.211433	-0.211027	0.00415836	2	-6.80316e-05	8.77528e-07
2	1	0	1	0	17.9331	-0.209434	-0.209037	0.00445356	2	-6.79452e-05	9.30957e-07
2	1	0	1	0	17.9531	-0.207435	-0.207028	0.00478893	2	-6.78525e-05	9.91443e-07
2	1	0	1	0	17.9731	-0.205435	-0.20503	0.00513591	2	-6.77527e-05	1.05302e-06
2	1	0	1	0	17.9931	-0.203436	-0.203017	0.0055055	2	-6.76462e-05	1.11771e-06
2	1	0	0	0	18.0129	-0.201437	-0.201004	0.00585146	2	-6.75334e-05	1.17617e-06
2	1	0	0	0	18.0329	-0.199438	-0.199008	0.00620927	2	-6.74127e-05	1.23569e-06
2	1	0	0	0	18.0529	-0.197439	-0.197023	0.0065387	2	-6.72851e-05	1.28827e-06
2	1	0	0	0	18.0729	-0.195439	-0.195033	0.0068847	2	-6.71505e-05	1.34274e-06
2	1	0	0	0	18.0929	-0.19344	-0.193	0.00725268	2	-6.7009e-05	1.39977e-06
2	1	0	0	0	18.1129	-0.191441	-0.190995	0.00757218	2	-6.68607e-05	1.44625e-06
2	1	0	0	0	18.1329	-0.189442	-0.189005	0.00790161	2	-6.67055e-05	1.49345e-06
2	1	0	0	0	18.1529	-0.187443	-0.187004	0.00821689	2	-6.65441e-05	1.53659e-06
2	1	0	0	0	18.1729	-0.185444	-0.185001	0.00849584	2	-6.63764e-05	1.57174e-06
2	1	0	0	0	18.1929	-0.183444	-0.182992	0.00879929	2	-6.62033e-05	1.6102e-06
2	1	0	0	0	18.2129	-0.181445	-0.180997	0.00904671	2	-6.60247e-05	1.63743e-06
2	1	0	0	0	18.2329	-0.179446	-0.178999	0.0092785	2	-6.58412e-05	1.66084e-06
2	1	0	0	0	18.2529	-0.177447	-0.176996	0.00948716	2	-6.56534e-05	1.67919e-06
2	1	0	0	0	18.2729	-0.175448	-0.174988	0.00967327	2	-6.54616e-05	1.6927e-06
2	1	0	0	0	18.2929	-0.173448	-0.172994	0.00981749	2	-6.52664e-05	1.69837e-06
2	1	0	0	0	18.3129	-0.171449	-0.170999	0.00993812	2	-6.50685e-05	1.69941e-06
2	1	0	0	0	18.3329	-0.16945	-0.169007	0.0100423	2	-6.48683e-05	1.69722e-06
2	1	0	0	0	18.3529	-0.167451	-0.167005	0.0101357	2	-6.46662e-05	1.69271e-06
2	1	0	0	0	18.3729	-0.165452	-0.165009	0.0101799	2	-6.44631e-05	1.67978e-06
2	1	0	0	0	18.3929	-0.163452	-0.162991	0.0101911	2	-6.42592e-05	1.66106e-06
2	1	0	0	0	18.4129	-0.161453	-0.160981	0.0102099	2	-6.40552e-05	1.6436e-06
2	1	0	0	0	18.4329	-0.159454	-0.158998	0.0101599	2	-6.38517e-05	1.6154e-06
2	1	0	0	0	18.4529	-0.157455	-0.156999	0.0101048	2	-6.3649e-05	1.58644e-06
2	1	0	0	0	18.4729	-0.155456	-0.155005	0.0100499	2	-6.34473e-05	1.55778e-06
2	1	0	0	0	18.4928	-0.153454	-0.152995	0.0099913	2	-6.32481e-05	1.52862e-06
2	1	0	1	0	18.5127	-0.151457	-0.151018	0.00986197	2	-6.30507e-05	1.48934e-06
2	1	0	1	0	18.5327	-0.149458	-0.149015	0.00975493	2	-6.28544e-05	1.45363e-06
2	1	0	1	0	18.5527	-0.147459	-0.147005	0.00962634	2	-6.26605e-05	1.41512e-06
2	1	0	1	0	18.5727	-0.14546	-0.145003	0.00948656	2	-6.24691e-05	1.37558e-06
2	1	0	1	0	18.5927	-0.143461	-0.142991	0.00936228	2	-6.22805e-05	1.33872e-06
2	1	0	1	0	18.6127	-0.141461	-0.140994	0.00921751	2	-6.20947e-05	1.29962e-06
2	1	0	1	0	18.6327	-0.139462	-0.138986	0.00908212	2	-6.19117e-05	1.26229e-06
2	1	0	1	0	18.6527	-0.137463	-0.136988	0.00893257	2	-6.17317e-05	1.22365e-06
2	1	0	1	0	18.6727	-0.135464	-0.134987	0.0087848	2	-6.15545e-05	1.18583e-06
2	1	0	1	0	18.6927	-0.133465	-0.133018	0.00862498	2	-6.13804e-05	1.14728e-06
2	1	0	1	0	18.7127	-0.131466	-0.131006	0.00848228	2	-6.12092e-05	1.11123e-06
2	1	0	1	0	18.7327	-0.129466	-0.129008	0.00835815	2	-6.10408e-05	1.07827e-06
2	1	0	1	0	18.7527	-0.127467	-0.127015	0.00821108	2	-6.08753e-05	1.04293e-06
2	1	0	1	0	18.7727	-0.125468	-0.125023	0.00804542	2	-6.07129e-05	1.00586e-06
2	1	0	1	0	18.7927	-0.123469	-0.123018	0.00792233	2	-6.05529e-05	9.74593e-07
2	1	0	1	0	18.8127	-0.12147	-0.121024	0.00779898	2	-6.03955e-05	9.43865e-07
2	1	0	1	0	18.8327	-0.11947	-0.119012	0.00769122	2	-6.02408e-05	9.1535e-07
2	1	0	1	0	18.8527	-0.117471	-0.117023	0.00754469	2	-6.00886e-05	8.82905e-07
2	1	0	1	0	18.8727	-0.115472	-0.115048	0.00742734	2	-5.99387e-05	8.54504e-07
2	1	0	1	0	18.8927	-0.113473	-0.113029	0.00733564	2	-5.97911e-05	8.29137e-07
2	1	0	1	0	18.9127	-0.111474	-0.111016	0.00720861	2	-5.96456e-05	8.00268e-07
2	1	0	1	0	18.9327	-0.109475	-0.109006	0.00711139	2	-5.95022e-05	7.75184e-07
2	1	0	1	0	18.9527	-0.107475	-0.107026	0.00699507	2	-5.9361e-05	7.48652e-07
2	1	0	1	0	18.9727	-0.105476	-0.105017	0.00691924	2	-5.92218e-05	7.26637e-07
2	1	0	0	0	18.9925	-0.103477	-0.103013	0.00681583	2	-5.90855e-05	7.0212e-07
2	1	0	0	0	19.0125	-0.101478	-0.101009	0.0067357	2	-5.89498e-05	6.80369e-07
2	1	0	0	0	19.0325	-0.0994786	-0.0990222	0.00663521	2	-5.88159e-05	6.57033e-07
2	1	0	0	0	19.0525	-0.0974794	-0.0970111	0.00660673	2	-5.86835e-05	6.40925e-07
2	1	0	0	0	19.0725	-0.0954802	-0.0950071	0.00649783	2	-5.85528e-05	6.1734e-07
2	1	0	0	0	19.0925	-0.093481	-0.0930206	0.00640355	2	-5.84236e-05	5.95662e-07
2	1	0	0	0	19.1125	-0.0914819	-0.0910297	0.00634107	2	-5.82958e-05	5.77226e-07
2	1	0	0	0	19.1325	-0.0894827	-0.0890315	0.00627384	2	-5.81696e-05	5.5857e-07
2	1	0	0	0	19.1525	-0.0874835	-0.0870238	0.00622124	2	-5.80444e-05	5.41396e-07
2	1	0	0	0	19.1725	-0.0854843	-0.0850294	0.00616515	2	-5.79207e-05	5.24219e-07
2	1	0	0	0	19.1925	-0.0834851	-0.0830225	0.00610715	2	-5.77979e-05	5.07031e-07
2	1	0	0	0	19.2125	-0.0814859	-0.0810423	0.00606051	2	-5.76763e-05	4.91158e-07
2	1	0	0	0	19.2325	-0.0794867	-0.0790358	0.00598648	2	-5.75559e-05	4.73146e-07
2	1	0	0	0	19.2525	-0.0774876	-0.077028	0.00594009	2	-5.74364e-05	4.57553e-07
2	1	0	0	0	19.2725	-0.0754884	-0.0750567	0.00587786	2	-5.73181e-05	4.41173e-07
2	1	0	0	0	19.2925	-0.0734892	-0.0730611	0.00584676	2	-5.72005e-05	4.27171e-07
2	1	0	0	0	19.3125	-0.07149	-0.0710516	0.00580827	2	-5.70838e-05	4.12687e-07
2	1	0	0	0	19.3325	-0.0694908	-0.0690572	0.0057558	2	-5.6968e-05	3.97479e-07
2	1	0	0	0	19.3525	-0.0674916	-0.0670414	0.0057223	2	-5.68531e-05	3.83631e-07
2	1	0	0	0	19.3725	-0.0654925	-0.065037	0.00569193	2	-5.67388e-05	3.70186e-07
2	1	0	0	0	19.3925	-0.0634933	-0.063038	0.00564749	2	-5.66253e-05	3.56006e-07
2	1	0	0	0	19.4125	-0.0614941	-0.0610472	0.00561829	2	-5.65125e-05	3.42981e-07
2	1	0	0	0	19.4325	-0.0594949	-0.0590373	0.00557941	2	-5.64002e-05	3.29393e-07
2	1	0	0	0	19.4525	-0.0574957	-0.0570359	0.00554315	2	-5.62886e-05	3.16158e-07
2	1	0	0	0	19.4724	-0.0554965	-0.0550433	0.00555473	2	-5.61781e-05	3.05751e-07
2	1	0	1	0	19.4923	-0.0534973	-0.0530399	0.00551535	2	-5.6068e-05	2.92533e-07
2	1	0	1	0	19.5123	-0.0514982	-0.0510362	0.00547622	2	-5.59581e-05	2.79485e-07
2	1	0	1	0	19.5323	-0.049499	-0.0490466	0.00545314	2	-5.58486e-05	2.67458e-07
2	1	0	1	0	19.5523	-0.0474998	-0.0470478	0.00544612	2	-5.57398e-05	2.56228e-07
2	1	0	1	0	19.5723	-0.0455006	-0.0450248	0.00539108	2	-5.56312e-05	2.42732e-07
2	1	0	1	0	19.5923	-0.0435014	-0.0430372	0.00537497	2	-5.55232e-05	2.31323e-07
2	1	0	1	0	19.6123	-0.0415022	-0.0410491	0.00536858	2	-5.54156e-05	2.20375e-07
2	1	0	1	0	19.6323	-0.0395031	-0.0390371	0.00534446	2	-5.53084e-05	2.08632e-07
2	1	0	1	0	19.6523	-0.0375039	-0.0370535	0.00533023	2	-5.52016e-05	1.97504e-07
2	1	0	1	0	19.6723	-0.0355047	-0.0350568	0.00530504	2	-5.50949e-05	1.85978e-07
2	1	0	1	0	19.6923	-0.0335055	-0.0330431	0.00530224	2	-5.49887e-05	1.75203e-07
2	1	0	1	0	19.7123	-0.0315063	-0.0310576	0.00527625	2	-5.48826e-05	1.63868e-07
2	1	0	1	0	19.7323	-0.0295071	-0.0290687	0.00527054	2	-5.47772e-05	1.53208e-07
2	1	0	1	0	19.7523	-0.0275079	-0.0270504	0.00525826	2	-5.46718e-05	1.42238e-07
2	1	0	1	0	19.7723	-0.0255088	-0.0250581	0.00523963	2	-5.45667e-05	1.31295e-07
2	1	0	1	0	19.7923	-0.0235096	-0.023076	0.00523576	2	-5.44619e-05	1.2082e-07
2	1	0	1	0	19.8123	-0.0215104	-0.0210576	0.0052148	2	-5.43572e-05	1.09811e-07
2	1	0	1	0	19.8323	-0.0195112	-0.0190533	0.00520409	2	-5.42528e-05	9.91548e-08
2	1	0	1	0	19.8523	-0.017512	-0.0170591	0.00520148	2	-5.41486e-05	8.87324e-08
2	1	0	1	0	19.8723	-0.0155128	-0.0150655	0.00520238	2	-5.40445e-05	7.83765e-08
2	1	0	1	0	19.8923	-0.0135137	-0.013065	0.00517707	2	-5.39405e-05	6.76383e-08
2	1	0	1	0	19.9123	-0.0115145	-0.011061	0.00518763	2	-5.38366e-05	5.73805e-08
2	1	0	1	0	19.9323	-0.00951528	-0.00907171	0.00516791	2	-5.37329e-05	4.68817e-08
2	1	0	1	0	19.9523	-0.0075161	-0.00706014	0.00516801	2	-5.36293e-05	3.64869e-08
2	1	0	1	0	19.9617	-0.00656777	-0.0061138	0.00522679	2	-5.35803e-05	3.19556e-08