File: TAP_Report/Data/MB_Suscept/6_bw_noanti_2_C01_2.mpt
EC-Lab ASCII FILE
Nb header lines : 56

Cyclic Voltammetry

Run on channel : 1 (SN 0696)
User :
Electrode connection : standard
Ewe ctrl range : min = -2.50 V, max = 2.50 V
Ewe,I filtering : 50 kHz
Safety Limits :
	Do not start on E overload
Channel : Floating
Acquisition started on : 09/12/2016 16:15:49
Saved on :
	File : 6_bw_noanti_2_C01.mpr
	Directory : \\userfs\st659\w2k\EC-Lab\Data\Meth_Blue 12-09-16\
	Host : 144.32.136.43
Device : SP-300 (SN 0182)
Address : USB
EC-Lab for windows v10.44 (software)
Internet server v10.44 (firmware)
Command interpretor v10.44 (firmware)
Electrode material :
Initial state :
Electrolyte :
Comments :
Cable : standard
Reference electrode : SCE Saturated Calomel Electrode (0.241 V)
Electrode surface area : 0.001 cm²
Characteristic mass : 0.001 g
Equivalent Weight : 0.000 g/eq.
Density : 0.000 g/cm3
Ei (V)              0.000
vs.                 Eoc
dE/dt               100.000
dE/dt unit          mV/s
E1 (V)              0.100
vs.                 Ref
Step percent        50
N                   10
E range min (V)     -2.500
E range max (V)     2.500
I Range             Auto
I Range min         Unset
I Range max         Unset
I Range init        Unset
Bandwidth           8
E2 (V)              -0.400
vs.                 Ref
nc cycles           2
Reverse Scan        1
Ef (V)              0.000
vs.                 Eoc

mode	ox/red	error	control changes	counter inc.	time/s	control/V	Ewe/V	<I>/mA	cycle number	(Q-Qo)/C	P/W
2	1	0	1	1	9.999	0.00840117	0.00887507	0.00471387	2	-3.32893e-05	4.18359e-08
2	1	0	0	1	10.0145	0.00995053	0.0104161	0.00471245	2	-3.32118e-05	4.90852e-08
2	1	0	0	1	10.0345	0.0119497	0.0124168	0.00473281	2	-3.3112e-05	5.87665e-08
2	1	0	0	1	10.0545	0.0139489	0.0144239	0.00473679	2	-3.30121e-05	6.83231e-08
2	1	0	0	1	10.0745	0.0159481	0.0164315	0.00473885	2	-3.29124e-05	7.78664e-08
2	1	0	0	1	10.0945	0.0179472	0.018399	0.00475112	2	-3.28125e-05	8.74157e-08
2	1	0	0	1	10.1145	0.0199464	0.020411	0.00471678	2	-3.27127e-05	9.62741e-08
2	1	0	0	1	10.1345	0.0219456	0.0223992	0.00475574	2	-3.26128e-05	1.06525e-07
2	1	0	0	1	10.1545	0.0239448	0.0244224	0.00470962	2	-3.25129e-05	1.1502e-07
2	1	0	0	1	10.1745	0.025944	0.0264018	0.00476639	2	-3.24128e-05	1.25841e-07
2	1	0	0	1	10.1945	0.0279431	0.0284119	0.00475972	2	-3.23128e-05	1.35233e-07
2	1	0	0	1	10.2145	0.0299423	0.0303957	0.00475901	2	-3.22126e-05	1.44653e-07
2	1	0	0	1	10.2345	0.0319415	0.032407	0.00475127	2	-3.21123e-05	1.53975e-07
2	1	0	0	1	10.2545	0.0339407	0.0344163	0.00475619	2	-3.20119e-05	1.6369e-07
2	1	0	0	1	10.2745	0.0359399	0.0364058	0.00475506	2	-3.19115e-05	1.73112e-07
2	1	0	0	1	10.2945	0.037939	0.0383941	0.0047317	2	-3.18108e-05	1.81669e-07
2	1	0	0	1	10.3145	0.0399382	0.0403997	0.0047999	2	-3.17101e-05	1.93914e-07
2	1	0	0	1	10.3345	0.0419374	0.0423977	0.0048381	2	-3.16091e-05	2.05124e-07
2	1	0	0	1	10.3545	0.0439366	0.0444025	0.0048255	2	-3.15081e-05	2.14264e-07
2	1	0	0	1	10.3745	0.0459357	0.046388	0.00478817	2	-3.14069e-05	2.22113e-07
2	1	0	0	1	10.3945	0.0479349	0.0484048	0.00487233	2	-3.13055e-05	2.35844e-07
2	1	0	0	1	10.4145	0.0499341	0.0503802	0.00483508	2	-3.1204e-05	2.43592e-07
2	1	0	0	1	10.4345	0.0519333	0.0523934	0.00479295	2	-3.11024e-05	2.51119e-07
2	1	0	0	1	10.4545	0.0539325	0.0543842	0.00487592	2	-3.10005e-05	2.65173e-07
2	1	0	0	1	10.4745	0.0559316	0.0564102	0.00485865	2	-3.08983e-05	2.74078e-07
2	1	0	1	1	10.4943	0.0579308	0.0583902	0.00486854	2	-3.07967e-05	2.84275e-07
2	1	0	1	1	10.5143	0.05993	0.0603969	0.00483886	2	-3.06941e-05	2.92252e-07
2	1	0	1	1	10.5343	0.0619292	0.0623921	0.0048694	2	-3.05912e-05	3.03812e-07
2	1	0	1	1	10.5543	0.0639284	0.0643857	0.00490765	2	-3.04882e-05	3.15983e-07
2	1	0	1	1	10.5743	0.0659275	0.0663886	0.00494075	2	-3.03849e-05	3.28009e-07
2	1	0	1	1	10.5943	0.0679267	0.0683811	0.00492513	2	-3.02812e-05	3.36786e-07
2	1	0	1	1	10.6143	0.0699259	0.0703916	0.00493048	2	-3.01774e-05	3.47065e-07
2	1	0	1	1	10.6343	0.0719251	0.0723733	0.00495702	2	-3.00733e-05	3.58756e-07
2	1	0	1	1	10.6543	0.0739243	0.0743781	0.00499102	2	-2.9969e-05	3.71222e-07
2	1	0	1	1	10.6743	0.0759234	0.076371	0.00498088	2	-2.98643e-05	3.80395e-07
2	1	0	1	1	10.6943	0.0779226	0.0783662	0.0049804	2	-2.97593e-05	3.90295e-07
2	1	0	1	1	10.7143	0.0799218	0.0803704	0.00503899	2	-2.9654e-05	4.04986e-07
2	1	0	1	1	10.7343	0.081921	0.0823811	0.00506633	2	-2.95484e-05	4.17369e-07
2	1	0	1	1	10.7543	0.0839201	0.0843712	0.00505216	2	-2.94424e-05	4.26257e-07
2	1	0	1	1	10.7743	0.0859193	0.0863652	0.00502799	2	-2.93361e-05	4.34244e-07
2	1	0	1	1	10.7943	0.0879185	0.0883575	0.0050822	2	-2.92294e-05	4.4905e-07
2	1	0	1	1	10.8143	0.0899177	0.0903718	0.00513234	2	-2.91223e-05	4.63819e-07
2	1	0	1	1	10.8343	0.0919169	0.0923707	0.00515978	2	-2.90147e-05	4.76612e-07
2	1	0	1	1	10.8543	0.093916	0.09437	0.0051831	2	-2.89067e-05	4.89129e-07
2	1	0	1	1	10.8743	0.0959152	0.0963752	0.00516806	2	-2.87983e-05	4.98073e-07
2	1	0	1	1	10.8943	0.0979144	0.0983704	0.00519009	2	-2.86897e-05	5.10551e-07
2	1	0	1	1	10.9118	0.0996637	0.100116	0.00524251	2	-2.85943e-05	5.24861e-07
2	0	0	1	1	10.9207	0.0994138	0.099808	0.00323979	2	-2.85593e-05	3.23357e-07
2	0	0	1	1	10.9407	0.0974146	0.0978066	0.00230982	2	-2.85111e-05	2.25916e-07
2	0	0	1	1	10.9607	0.0954154	0.0958183	0.00186485	2	-2.84751e-05	1.78686e-07
2	0	0	1	1	10.9807	0.0934163	0.0938271	0.00153509	2	-2.84466e-05	1.44033e-07
2	0	0	1	1	11.0007	0.0914171	0.0918221	0.00129251	2	-2.84234e-05	1.18681e-07
2	0	0	1	1	11.0207	0.0894179	0.0898082	0.00108217	2	-2.84047e-05	9.71879e-08
2	0	0	1	1	11.0407	0.0874187	0.0878125	0.000957009	2	-2.83896e-05	8.40374e-08
2	0	0	1	1	11.0607	0.0854195	0.0858101	0.000782657	2	-2.83778e-05	6.71598e-08
2	0	0	1	1	11.0807	0.0834203	0.083814	0.000619026	2	-2.83687e-05	5.1883e-08
2	0	0	1	1	11.1007	0.0814212	0.0818319	0.000497211	2	-2.83621e-05	4.06877e-08
2	0	0	0	1	11.1517	0.0763233	0.0767029	-6.09324e-06	2	-2.83636e-05	4.67369e-10
2	0	0	0	1	11.1717	0.0743241	0.0747195	-0.000118062	2	-2.83649e-05	8.82155e-09
2	0	0	0	1	11.1917	0.0723249	0.0727107	-0.000181091	2	-2.83679e-05	1.31672e-08
2	0	0	0	1	11.2117	0.0703257	0.0707199	-0.000260689	2	-2.83726e-05	1.84359e-08
2	0	0	0	1	11.2317	0.0683265	0.0687259	-0.000341954	2	-2.83788e-05	2.35011e-08
2	0	0	0	1	11.2517	0.0663274	0.0667231	-0.000396998	2	-2.83865e-05	2.64889e-08
2	0	0	0	1	11.2717	0.0643282	0.0647202	-0.000481353	2	-2.83955e-05	3.11533e-08
2	0	0	0	1	11.2917	0.062329	0.0627224	-0.000528037	2	-2.84057e-05	3.31197e-08
2	0	0	0	1	11.3117	0.0603298	0.0607246	-0.00058442	2	-2.84171e-05	3.54887e-08
2	0	0	0	1	11.3317	0.0583307	0.0587251	-0.000632317	2	-2.84297e-05	3.71329e-08
2	0	0	1	1	11.3515	0.0563315	0.0567229	-0.000736011	2	-2.84433e-05	4.17487e-08
2	0	0	1	1	11.3715	0.0543323	0.0547257	-0.000751187	2	-2.84583e-05	4.11093e-08
2	0	0	1	1	11.3915	0.0523331	0.0527194	-0.000800804	2	-2.84739e-05	4.22179e-08
2	0	0	1	1	11.4115	0.0503339	0.050725	-0.00083536	2	-2.84906e-05	4.23736e-08
2	0	0	1	1	11.4315	0.0483348	0.0487124	-0.00089143	2	-2.85082e-05	4.34237e-08
2	0	0	1	1	11.4515	0.0463356	0.0467244	-0.000936486	2	-2.85267e-05	4.37567e-08
2	0	0	1	1	11.4715	0.0443364	0.044719	-0.000964992	2	-2.85459e-05	4.31535e-08
2	0	0	1	1	11.4915	0.0423372	0.0427159	-0.00102854	2	-2.85661e-05	4.3935e-08
2	0	0	1	1	11.5115	0.040338	0.0407191	-0.0010649	2	-2.85869e-05	4.33618e-08
2	0	0	1	1	11.5315	0.0383389	0.0387288	-0.00110169	2	-2.86087e-05	4.26671e-08
2	0	0	1	1	11.5515	0.0363397	0.036728	-0.00112626	2	-2.86311e-05	4.13652e-08
2	0	0	1	1	11.5715	0.0343405	0.0347249	-0.00116254	2	-2.86542e-05	4.03691e-08
2	0	0	1	1	11.5915	0.0323413	0.0327352	-0.00120151	2	-2.8678e-05	3.93316e-08
2	0	0	1	1	11.6115	0.0303422	0.030742	-0.00124023	2	-2.87025e-05	3.81273e-08
2	0	0	1	1	11.6315	0.028343	0.028726	-0.00126082	2	-2.87277e-05	3.62183e-08
2	0	0	1	1	11.6515	0.0263438	0.026732	-0.00127326	2	-2.87535e-05	3.40369e-08
2	0	0	1	1	11.6715	0.0243446	0.0247372	-0.0013199	2	-2.87798e-05	3.26508e-08
2	0	0	1	1	11.6915	0.0223454	0.0227471	-0.00136237	2	-2.88068e-05	3.09898e-08
2	0	0	1	1	11.7115	0.0203463	0.0207399	-0.00137652	2	-2.88344e-05	2.8549e-08
2	0	0	1	1	11.7315	0.0183471	0.0187434	-0.00141504	2	-2.88626e-05	2.65226e-08
2	0	0	1	1	11.7515	0.0163479	0.0167401	-0.00145132	2	-2.88913e-05	2.42953e-08
2	0	0	1	1	11.7715	0.0143487	0.0147444	-0.00147286	2	-2.89208e-05	2.17166e-08
2	0	0	1	1	11.7915	0.0123495	0.0127314	-0.00147967	2	-2.89507e-05	1.88383e-08
2	0	0	1	1	11.8115	0.0103504	0.0107291	-0.0015312	2	-2.89812e-05	1.64285e-08
2	0	0	1	1	11.8314	0.008358	0.00874482	-0.00157059	2	-2.9012e-05	1.37346e-08
2	0	0	0	1	11.8513	0.00635201	0.00673865	-0.00157967	2	-2.90436e-05	1.06448e-08
2	0	0	0	1	11.8713	0.00435283	0.00473979	-0.00161275	2	-2.90755e-05	7.64408e-09
2	0	0	0	1	11.8913	0.00235365	0.00273331	-0.00162636	2	-2.91081e-05	4.44535e-09
2	0	0	0	1	11.9113	0.000353446	0.000720894	-0.00164839	2	-2.91413e-05	1.18831e-09
2	0	0	0	1	11.9313	-0.00164471	-0.00127414	-0.00169408	2	-2.91748e-05	2.1585e-09
2	0	0	0	1	11.9513	-0.00364389	-0.00329356	-0.00170383	2	-2.92089e-05	5.61166e-09
2	0	0	0	1	11.9713	-0.00564307	-0.00525722	-0.00171527	2	-2.92433e-05	9.01754e-09
2	0	0	0	1	11.9913	-0.00764225	-0.00725904	-0.00175462	2	-2.92781e-05	1.27368e-08
2	0	0	0	1	12.0113	-0.00964143	-0.00922928	-0.00177672	2	-2.93136e-05	1.63978e-08
2	0	0	0	1	12.0313	-0.0116406	-0.0112616	-0.00179294	2	-2.93494e-05	2.01915e-08
2	0	0	0	1	12.0513	-0.0136398	-0.0132605	-0.0018103	2	-2.93859e-05	2.40055e-08
2	0	0	0	1	12.0713	-0.015639	-0.0152553	-0.00184492	2	-2.94227e-05	2.81448e-08
2	0	0	0	1	12.0913	-0.0176381	-0.0172578	-0.00186187	2	-2.94598e-05	3.21316e-08
2	0	0	0	1	12.1113	-0.0196373	-0.0192615	-0.00187905	2	-2.94975e-05	3.61932e-08
2	0	0	0	1	12.1313	-0.0216365	-0.0212527	-0.00190883	2	-2.95356e-05	4.05677e-08
2	0	0	0	1	12.1513	-0.0236357	-0.0232596	-0.00193302	2	-2.95742e-05	4.49613e-08
2	0	0	0	1	12.1713	-0.0256349	-0.0252438	-0.00195055	2	-2.96131e-05	4.92395e-08
2	0	0	0	1	12.1913	-0.027634	-0.0272605	-0.0019854	2	-2.96525e-05	5.41229e-08
2	0	0	0	1	12.2113	-0.0296332	-0.0292517	-0.00199283	2	-2.96923e-05	5.82938e-08
2	0	0	0	1	12.2313	-0.0316324	-0.0312542	-0.00200912	2	-2.97325e-05	6.27934e-08
2	0	0	0	1	12.2513	-0.0336316	-0.0332348	-0.00204598	2	-2.97732e-05	6.79977e-08
2	0	0	0	1	12.2713	-0.0356308	-0.035243	-0.00206085	2	-2.98144e-05	7.26303e-08
2	0	0	0	1	12.2913	-0.0376299	-0.0372465	-0.00207963	2	-2.9856e-05	7.74588e-08
2	0	0	0	1	12.3113	-0.0396291	-0.0392477	-0.00210111	2	-2.9898e-05	8.24635e-08
2	0	0	1	1	12.3311	-0.0416283	-0.0412559	-0.00212617	2	-2.99404e-05	8.7717e-08
2	0	0	1	1	12.3511	-0.0436275	-0.0432515	-0.00213605	2	-2.99832e-05	9.23875e-08
2	0	0	1	1	12.3711	-0.0456267	-0.0452322	-0.00216899	2	-3.00265e-05	9.8108e-08
2	0	0	1	1	12.3911	-0.0476258	-0.0472416	-0.00218747	2	-3.00702e-05	1.0334e-07
2	0	0	1	1	12.4111	-0.049625	-0.0492455	-0.00222104	2	-3.01145e-05	1.09376e-07
2	0	0	1	1	12.4311	-0.0516242	-0.0512291	-0.00223763	2	-3.01591e-05	1.14632e-07
2	0	0	1	1	12.4511	-0.0536234	-0.053246	-0.0022626	2	-3.02042e-05	1.20474e-07
2	0	0	1	1	12.4711	-0.0556226	-0.055237	-0.00227159	2	-3.02497e-05	1.25476e-07
2	0	0	1	1	12.4911	-0.0576217	-0.0572395	-0.00230224	2	-3.02955e-05	1.31779e-07
2	0	0	1	1	12.5111	-0.0596209	-0.0592286	-0.00232118	2	-3.03418e-05	1.3748e-07
2	0	0	1	1	12.5311	-0.0616201	-0.061237	-0.00233114	2	-3.03886e-05	1.42752e-07
2	0	0	1	1	12.5511	-0.0636193	-0.063229	-0.00236167	2	-3.04359e-05	1.49326e-07
2	0	0	1	1	12.5711	-0.0656185	-0.0652296	-0.00239045	2	-3.04835e-05	1.55928e-07
2	0	0	1	1	12.5911	-0.0676176	-0.0672363	-0.00240665	2	-3.05316e-05	1.61814e-07
2	0	0	1	1	12.6111	-0.0696168	-0.069254	-0.00242817	2	-3.05803e-05	1.68161e-07
2	0	0	1	1	12.6311	-0.071616	-0.0712189	-0.0024639	2	-3.06292e-05	1.75476e-07
2	0	0	1	1	12.6511	-0.0736152	-0.0732502	-0.0024893	2	-3.06788e-05	1.82342e-07
2	0	0	1	1	12.6711	-0.0756144	-0.075241	-0.00248847	2	-3.07288e-05	1.87235e-07
2	0	0	1	1	12.6911	-0.0776135	-0.077235	-0.00251054	2	-3.07791e-05	1.93901e-07
2	0	0	1	1	12.7111	-0.0796127	-0.079236	-0.00255642	2	-3.08301e-05	2.0256e-07
2	0	0	1	1	12.7311	-0.0816119	-0.081216	-0.00258106	2	-3.08816e-05	2.09623e-07
2	0	0	1	1	12.7511	-0.0836111	-0.0832127	-0.00259742	2	-3.09335e-05	2.16138e-07
2	0	0	1	1	12.7711	-0.0856103	-0.0852293	-0.00263474	2	-3.09861e-05	2.24557e-07
2	0	0	1	1	12.7911	-0.0876094	-0.0872206	-0.00263197	2	-3.1039e-05	2.29562e-07
2	0	0	1	1	12.811	-0.0896132	-0.0892349	-0.002711	2	-3.10926e-05	2.41916e-07
2	0	0	0	1	12.8309	-0.0916078	-0.0912208	-0.00273278	2	-3.11468e-05	2.49286e-07
2	0	0	0	1	12.8509	-0.093607	-0.0932186	-0.00275255	2	-3.12016e-05	2.56589e-07
2	0	0	0	1	12.8709	-0.0956062	-0.0952323	-0.00277793	2	-3.1257e-05	2.64549e-07
2	0	0	0	1	12.8909	-0.0976053	-0.0972146	-0.00282657	2	-3.13131e-05	2.74784e-07
2	0	0	0	1	12.9109	-0.0996045	-0.0992226	-0.00284622	2	-3.13699e-05	2.82409e-07
2	0	0	0	1	12.9309	-0.101604	-0.101234	-0.00288754	2	-3.14274e-05	2.92316e-07
2	0	0	0	1	12.9509	-0.103603	-0.103226	-0.00292101	2	-3.14854e-05	3.01524e-07
2	0	0	0	1	12.9709	-0.105602	-0.105234	-0.00296009	2	-3.15445e-05	3.11504e-07
2	0	0	0	1	12.9909	-0.107601	-0.107227	-0.00298863	2	-3.16042e-05	3.20461e-07
2	0	0	0	1	13.0109	-0.1096	-0.109219	-0.00304254	2	-3.16646e-05	3.32302e-07
2	0	0	0	1	13.0309	-0.1116	-0.111224	-0.00308016	2	-3.1726e-05	3.42586e-07
2	0	0	0	1	13.0509	-0.113599	-0.113208	-0.00313111	2	-3.17884e-05	3.54467e-07
2	0	0	0	1	13.0709	-0.115598	-0.115214	-0.00317616	2	-3.18518e-05	3.65938e-07
2	0	0	0	1	13.0909	-0.117597	-0.117226	-0.00324905	2	-3.19163e-05	3.80874e-07
2	0	0	0	1	13.1109	-0.119596	-0.119221	-0.00330171	2	-3.19819e-05	3.93633e-07
2	0	0	0	1	13.1309	-0.121595	-0.121216	-0.00337522	2	-3.20486e-05	4.0913e-07
2	0	0	0	1	13.1509	-0.123595	-0.123223	-0.00344426	2	-3.21166e-05	4.24412e-07
2	0	0	0	1	13.1709	-0.125594	-0.12522	-0.00350414	2	-3.21863e-05	4.38787e-07
2	0	0	0	1	13.1909	-0.127593	-0.127217	-0.00358184	2	-3.22571e-05	4.55672e-07
2	0	0	0	1	13.2109	-0.129592	-0.129226	-0.00364739	2	-3.23297e-05	4.71337e-07
2	0	0	0	1	13.2309	-0.131591	-0.131208	-0.00375804	2	-3.2404e-05	4.93085e-07
2	0	0	0	1	13.2509	-0.133591	-0.133226	-0.00384258	2	-3.24802e-05	5.1193e-07
2	0	0	0	1	13.2709	-0.13559	-0.135214	-0.00395473	2	-3.25583e-05	5.34733e-07
2	0	0	0	1	13.2909	-0.137589	-0.137208	-0.00408066	2	-3.26387e-05	5.59898e-07
2	0	0	1	1	13.3107	-0.139588	-0.139219	-0.00420257	2	-3.27209e-05	5.85078e-07
2	0	0	1	1	13.3307	-0.141587	-0.141222	-0.0043086	2	-3.28062e-05	6.08467e-07
2	0	0	1	1	13.3507	-0.143586	-0.143214	-0.00445935	2	-3.28943e-05	6.38641e-07
2	0	0	1	1	13.3707	-0.145586	-0.145222	-0.00461392	2	-3.29853e-05	6.70042e-07
2	0	0	1	1	13.3907	-0.147585	-0.147218	-0.00477179	2	-3.30792e-05	7.02492e-07
2	0	0	1	1	13.4107	-0.149584	-0.149238	-0.00495054	2	-3.31766e-05	7.3881e-07
2	0	0	1	1	13.4307	-0.151583	-0.151226	-0.00514056	2	-3.32778e-05	7.77386e-07
2	0	0	1	1	13.4507	-0.153582	-0.153216	-0.00533439	2	-3.33828e-05	8.17313e-07
2	0	0	1	1	13.4707	-0.155582	-0.155221	-0.0055442	2	-3.34917e-05	8.60575e-07
2	0	0	1	1	13.4907	-0.157581	-0.157227	-0.00576629	2	-3.36051e-05	9.06618e-07
2	0	0	1	1	13.5107	-0.15958	-0.1592	-0.00600843	2	-3.37229e-05	9.56542e-07
2	0	0	1	1	13.5307	-0.161579	-0.161218	-0.00625966	2	-3.38457e-05	1.00917e-06
2	0	0	1	1	13.5507	-0.163578	-0.16322	-0.00651712	2	-3.39737e-05	1.06372e-06
2	0	0	1	1	13.5707	-0.165577	-0.165242	-0.0067913	2	-3.4107e-05	1.12221e-06
2	0	0	1	1	13.5907	-0.167577	-0.167236	-0.00707802	2	-3.4246e-05	1.1837e-06
2	0	0	1	1	13.6107	-0.169576	-0.169234	-0.00736942	2	-3.43908e-05	1.24716e-06
2	0	0	1	1	13.6307	-0.171575	-0.171239	-0.00766276	2	-3.45414e-05	1.31216e-06
2	0	0	1	1	13.6507	-0.173574	-0.173246	-0.00796981	2	-3.46981e-05	1.38074e-06
2	0	0	1	1	13.6707	-0.175573	-0.175221	-0.0082824	2	-3.4861e-05	1.45125e-06
2	0	0	1	1	13.6907	-0.177573	-0.17724	-0.00860639	2	-3.50301e-05	1.5254e-06
2	0	0	1	1	13.7107	-0.179572	-0.179223	-0.00891165	2	-3.52055e-05	1.59717e-06
2	0	0	1	1	13.7307	-0.181571	-0.181237	-0.00924038	2	-3.53873e-05	1.6747e-06
2	0	0	1	1	13.7507	-0.18357	-0.183224	-0.00955659	2	-3.55754e-05	1.75099e-06
2	0	0	1	1	13.7707	-0.185569	-0.185223	-0.00986831	2	-3.57697e-05	1.82783e-06
2	0	0	0	1	13.7905	-0.187568	-0.187235	-0.0101817	2	-3.59684e-05	1.90636e-06
2	0	0	1	1	13.8415	-0.192666	-0.192302	-0.0106384	2	-3.65006e-05	2.04578e-06
2	0	0	1	1	13.8615	-0.194666	-0.194293	-0.0108815	2	-3.67209e-05	2.11421e-06
2	0	0	1	1	13.8815	-0.196665	-0.196302	-0.0111315	2	-3.69462e-05	2.18514e-06
2	0	0	1	1	13.9015	-0.198664	-0.19829	-0.0113868	2	-3.71765e-05	2.25789e-06
2	0	0	1	1	13.9215	-0.200663	-0.200298	-0.0116212	2	-3.74116e-05	2.3277e-06
2	0	0	1	1	13.9415	-0.202662	-0.2023	-0.0118371	2	-3.76512e-05	2.39464e-06
2	0	0	1	1	13.9615	-0.204661	-0.204319	-0.0120186	2	-3.78948e-05	2.45564e-06
2	0	0	1	1	13.9815	-0.206661	-0.206296	-0.01219	2	-3.81421e-05	2.51475e-06
2	0	0	1	1	14.0015	-0.20866	-0.208296	-0.0123752	2	-3.83928e-05	2.57771e-06
2	0	0	1	1	14.0215	-0.210659	-0.210284	-0.0124906	2	-3.86466e-05	2.62657e-06
2	0	0	1	1	14.0415	-0.212658	-0.212293	-0.0126603	2	-3.89033e-05	2.6877e-06
2	0	0	1	1	14.0615	-0.214657	-0.214305	-0.0127722	2	-3.91628e-05	2.73714e-06
2	0	0	1	1	14.0815	-0.216656	-0.216301	-0.0129208	2	-3.94245e-05	2.79478e-06
2	0	0	1	1	14.1015	-0.218656	-0.218302	-0.0129733	2	-3.96884e-05	2.83208e-06
2	0	0	1	1	14.1215	-0.220655	-0.220292	-0.0130496	2	-3.99542e-05	2.87472e-06
2	0	0	1	1	14.1415	-0.222654	-0.22229	-0.0131214	2	-4.02214e-05	2.91675e-06
2	0	0	1	1	14.1615	-0.224653	-0.224298	-0.0132107	2	-4.049e-05	2.96313e-06
2	0	0	1	1	14.1815	-0.226652	-0.226295	-0.0132791	2	-4.07599e-05	3.005e-06
2	0	0	1	1	14.2015	-0.228652	-0.228301	-0.0132925	2	-4.10306e-05	3.03469e-06
2	0	0	1	1	14.2215	-0.230651	-0.230282	-0.0133345	2	-4.13022e-05	3.0707e-06
2	0	0	1	1	14.2415	-0.23265	-0.232295	-0.0133767	2	-4.15744e-05	3.10734e-06
2	0	0	1	1	14.2615	-0.234649	-0.234285	-0.0134023	2	-4.18471e-05	3.13997e-06
2	0	0	0	1	14.2813	-0.236648	-0.236281	-0.0134166	2	-4.21177e-05	3.1701e-06
2	0	0	0	1	14.3013	-0.238647	-0.238282	-0.0134096	2	-4.23912e-05	3.19526e-06
2	0	0	0	1	14.3213	-0.240647	-0.240286	-0.0134262	2	-4.26649e-05	3.22612e-06
2	0	0	0	1	14.3413	-0.242646	-0.242281	-0.0134208	2	-4.29385e-05	3.25161e-06
2	0	0	0	1	14.3613	-0.244645	-0.24429	-0.0134327	2	-4.32121e-05	3.28147e-06
2	0	0	0	1	14.3813	-0.246644	-0.246281	-0.0133944	2	-4.34856e-05	3.29879e-06
2	0	0	0	1	14.4013	-0.248643	-0.248277	-0.0134021	2	-4.37587e-05	3.32743e-06
2	0	0	0	1	14.4213	-0.250643	-0.250284	-0.0134058	2	-4.40315e-05	3.35525e-06
2	0	0	0	1	14.4413	-0.252642	-0.252305	-0.0134007	2	-4.43042e-05	3.38107e-06
2	0	0	0	1	14.4613	-0.254641	-0.254284	-0.0133868	2	-4.45764e-05	3.40406e-06
2	0	0	0	1	14.4813	-0.25664	-0.256271	-0.0132788	2	-4.48481e-05	3.40297e-06
2	0	0	0	1	14.5013	-0.258639	-0.258274	-0.0133191	2	-4.51193e-05	3.43998e-06
2	0	0	0	1	14.5213	-0.260638	-0.260284	-0.0132579	2	-4.53901e-05	3.45081e-06
2	0	0	0	1	14.5413	-0.262638	-0.262277	-0.0132197	2	-4.56604e-05	3.46722e-06
2	0	0	0	1	14.5613	-0.264637	-0.264271	-0.0132332	2	-4.59302e-05	3.49715e-06
2	0	0	0	1	14.5813	-0.266636	-0.266272	-0.0131906	2	-4.61993e-05	3.51229e-06
2	0	0	0	1	14.6013	-0.268635	-0.268293	-0.0132032	2	-4.64682e-05	3.54233e-06
2	0	0	0	1	14.6213	-0.270634	-0.270296	-0.0131699	2	-4.67364e-05	3.55976e-06
2	0	0	0	1	14.6413	-0.272634	-0.272287	-0.0131149	2	-4.70041e-05	3.57102e-06
2	0	0	0	1	14.6613	-0.274633	-0.274285	-0.0131123	2	-4.72711e-05	3.5965e-06
2	0	0	0	1	14.6813	-0.276632	-0.276273	-0.0130695	2	-4.75376e-05	3.61076e-06
2	0	0	0	1	14.7013	-0.278631	-0.278272	-0.013048	2	-4.78037e-05	3.6309e-06
2	0	0	0	1	14.7213	-0.28063	-0.280267	-0.0130047	2	-4.80691e-05	3.64478e-06
2	0	0	0	1	14.7413	-0.282629	-0.282271	-0.0129959	2	-4.83341e-05	3.66835e-06
2	0	0	0	1	14.7612	-0.284635	-0.284274	-0.0130286	2	-4.85975e-05	3.70368e-06
2	0	0	1	1	14.7811	-0.286628	-0.286268	-0.012945	2	-4.88604e-05	3.70575e-06
2	0	0	1	1	14.8011	-0.288627	-0.28826	-0.0129214	2	-4.91241e-05	3.72471e-06
2	0	0	1	1	14.8211	-0.290626	-0.290271	-0.0129163	2	-4.93875e-05	3.74924e-06
2	0	0	1	1	14.8411	-0.292625	-0.292275	-0.0128689	2	-4.96505e-05	3.76125e-06
2	0	0	1	1	14.8611	-0.294624	-0.294271	-0.0128336	2	-4.99132e-05	3.77656e-06
2	0	0	1	1	14.8811	-0.296624	-0.29625	-0.0128772	2	-5.01754e-05	3.81488e-06
2	0	0	1	1	14.9011	-0.298623	-0.298273	-0.0128327	2	-5.04374e-05	3.82765e-06
2	0	0	1	1	14.9211	-0.300622	-0.300255	-0.0128169	2	-5.06992e-05	3.84835e-06
2	0	0	1	1	14.9411	-0.302621	-0.302282	-0.012837	2	-5.09606e-05	3.8804e-06
2	0	0	1	1	14.9611	-0.30462	-0.304266	-0.0127612	2	-5.12219e-05	3.88279e-06
2	0	0	1	1	14.9811	-0.30662	-0.306277	-0.0128331	2	-5.14831e-05	3.93049e-06
2	0	0	1	1	15.0011	-0.308619	-0.308275	-0.0128051	2	-5.17441e-05	3.94749e-06
2	0	0	1	1	15.0211	-0.310618	-0.310276	-0.012788	2	-5.2005e-05	3.9678e-06
2	0	0	1	1	15.0411	-0.312617	-0.312276	-0.0127907	2	-5.22659e-05	3.99423e-06
2	0	0	1	1	15.0611	-0.314616	-0.314277	-0.0127821	2	-5.25266e-05	4.01713e-06
2	0	0	1	1	15.0811	-0.316615	-0.316285	-0.0128106	2	-5.27874e-05	4.0518e-06
2	0	0	1	1	15.1011	-0.318615	-0.318276	-0.0128	2	-5.30483e-05	4.07392e-06
2	0	0	1	1	15.1211	-0.320614	-0.320276	-0.0127943	2	-5.33093e-05	4.0977e-06
2	0	0	1	1	15.1411	-0.322613	-0.322268	-0.0128009	2	-5.35703e-05	4.12532e-06
2	0	0	1	1	15.1611	-0.324612	-0.324268	-0.0128245	2	-5.38315e-05	4.15858e-06
2	0	0	1	1	15.1811	-0.326611	-0.326266	-0.0128148	2	-5.40928e-05	4.18104e-06
2	0	0	1	1	15.2011	-0.328611	-0.328258	-0.0128112	2	-5.43543e-05	4.20537e-06
2	0	0	1	1	15.2211	-0.33061	-0.330252	-0.0128776	2	-5.46162e-05	4.25287e-06
2	0	0	1	1	15.2411	-0.332609	-0.332259	-0.0128418	2	-5.48781e-05	4.26681e-06
2	0	0	0	1	15.2609	-0.334608	-0.334255	-0.0128726	2	-5.51382e-05	4.30272e-06
2	0	0	0	1	15.2809	-0.336607	-0.336256	-0.0129099	2	-5.54011e-05	4.34103e-06
2	0	0	0	1	15.3009	-0.338606	-0.338274	-0.0129382	2	-5.56641e-05	4.37665e-06
2	0	0	0	1	15.3209	-0.340606	-0.340254	-0.0129491	2	-5.59277e-05	4.40598e-06
2	0	0	0	1	15.3409	-0.342605	-0.342265	-0.0129513	2	-5.61918e-05	4.43278e-06
2	0	0	0	1	15.3609	-0.344604	-0.344265	-0.0130144	2	-5.64563e-05	4.48038e-06
2	0	0	0	1	15.3809	-0.346603	-0.346259	-0.0130226	2	-5.67213e-05	4.50918e-06
2	0	0	0	1	15.4009	-0.348602	-0.348239	-0.0130543	2	-5.69869e-05	4.54602e-06
2	0	0	0	1	15.4209	-0.350602	-0.350266	-0.0130788	2	-5.7253e-05	4.58107e-06
2	0	0	0	1	15.4409	-0.352601	-0.352243	-0.0131026	2	-5.75198e-05	4.6153e-06
2	0	0	0	1	15.4609	-0.3546	-0.354248	-0.013147	2	-5.77873e-05	4.65729e-06
2	0	0	0	1	15.4809	-0.356599	-0.356256	-0.0131965	2	-5.80555e-05	4.70132e-06
2	0	0	0	1	15.5009	-0.358598	-0.358247	-0.0132114	2	-5.83243e-05	4.73294e-06
2	0	0	0	1	15.5209	-0.360597	-0.360243	-0.0132674	2	-5.85941e-05	4.77948e-06
2	0	0	0	1	15.5409	-0.362597	-0.362243	-0.0132971	2	-5.88646e-05	4.81678e-06
2	0	0	0	1	15.5609	-0.364596	-0.364241	-0.0133304	2	-5.91358e-05	4.85549e-06
2	0	0	0	1	15.5809	-0.366595	-0.366223	-0.0133882	2	-5.94078e-05	4.90307e-06
2	0	0	0	1	15.6009	-0.368594	-0.368237	-0.0134265	2	-5.96809e-05	4.94414e-06
2	0	0	0	1	15.6209	-0.370593	-0.370228	-0.0134781	2	-5.9955e-05	4.98999e-06
2	0	0	0	1	15.6409	-0.372592	-0.372234	-0.0135265	2	-6.023e-05	5.03503e-06
2	0	0	0	1	15.6609	-0.374592	-0.374234	-0.0135509	2	-6.0506e-05	5.07122e-06
2	0	0	0	1	15.6809	-0.376591	-0.376246	-0.0136078	2	-6.07831e-05	5.1199e-06
2	0	0	0	1	15.7009	-0.37859	-0.378234	-0.0136807	2	-6.10611e-05	5.17449e-06
2	0	0	0	1	15.7209	-0.380589	-0.380246	-0.0137002	2	-6.13404e-05	5.20945e-06
2	0	0	1	1	15.7407	-0.382588	-0.382245	-0.0138011	2	-6.16183e-05	5.2754e-06
2	0	0	1	1	15.7607	-0.384588	-0.384226	-0.0138665	2	-6.18999e-05	5.32788e-06
2	0	0	1	1	15.7807	-0.386587	-0.386226	-0.0139171	2	-6.21828e-05	5.37516e-06
2	0	0	1	1	15.8007	-0.388586	-0.388226	-0.0139799	2	-6.24669e-05	5.42738e-06
2	0	0	1	1	15.8207	-0.390585	-0.390226	-0.0140179	2	-6.27521e-05	5.47016e-06
2	0	0	1	1	15.8407	-0.392584	-0.392215	-0.0140831	2	-6.30388e-05	5.52362e-06
2	0	0	1	1	15.8607	-0.394583	-0.394225	-0.0142091	2	-6.33269e-05	5.60157e-06
2	0	0	1	1	15.8807	-0.396583	-0.396239	-0.0142597	2	-6.36164e-05	5.65024e-06
2	0	0	1	1	15.9007	-0.398582	-0.398232	-0.0143442	2	-6.39073e-05	5.71231e-06
2	1	0	0	0	15.9148	-0.400031	-0.399668	-0.0148157	2	-6.41134e-05	5.92136e-06
2	1	0	1	0	15.9303	-0.398482	-0.398076	-0.0112266	2	-6.42928e-05	4.46905e-06
2	1	0	1	0	15.9503	-0.396483	-0.396066	-0.0104971	2	-6.45047e-05	4.15756e-06
2	1	0	1	0	15.9703	-0.394484	-0.394079	-0.0100119	2	-6.47046e-05	3.94548e-06
2	1	0	1	0	15.9903	-0.392484	-0.39208	-0.00964087	2	-6.48958e-05	3.77999e-06
2	1	0	1	0	16.0103	-0.390485	-0.390079	-0.00929775	2	-6.50799e-05	3.62685e-06
2	1	0	1	0	16.0303	-0.388486	-0.388075	-0.00901677	2	-6.52579e-05	3.49919e-06
2	1	0	1	0	16.0503	-0.386487	-0.386052	-0.00869836	2	-6.54302e-05	3.35802e-06
2	1	0	1	0	16.0703	-0.384488	-0.384069	-0.00850826	2	-6.55972e-05	3.26776e-06
2	1	0	1	0	16.0903	-0.382488	-0.382073	-0.00819283	2	-6.57597e-05	3.13026e-06
2	1	0	0	0	16.1101	-0.380489	-0.380087	-0.00803972	2	-6.59156e-05	3.05579e-06
2	1	0	0	0	16.1301	-0.37849	-0.378069	-0.00782709	2	-6.60691e-05	2.95918e-06
2	1	0	0	0	16.1501	-0.376491	-0.376067	-0.00759701	2	-6.62185e-05	2.85699e-06
2	1	0	0	0	16.1701	-0.374492	-0.374075	-0.00744865	2	-6.6364e-05	2.78635e-06
2	1	0	0	0	16.1901	-0.372493	-0.372065	-0.00719223	2	-6.65058e-05	2.67598e-06
2	1	0	0	0	16.2101	-0.370493	-0.370073	-0.00710645	2	-6.66441e-05	2.6299e-06
2	1	0	0	0	16.2301	-0.368494	-0.368065	-0.0068829	2	-6.67787e-05	2.53336e-06
2	1	0	0	0	16.2501	-0.366495	-0.366071	-0.00671503	2	-6.69101e-05	2.45818e-06
2	1	0	0	0	16.2701	-0.364496	-0.364079	-0.00659654	2	-6.70381e-05	2.40166e-06
2	1	0	0	0	16.2901	-0.362497	-0.362082	-0.00640749	2	-6.71631e-05	2.32003e-06
2	1	0	0	0	16.3101	-0.360497	-0.360088	-0.00622667	2	-6.7285e-05	2.24215e-06
2	1	0	0	0	16.3301	-0.358498	-0.358084	-0.00616104	2	-6.74037e-05	2.20617e-06
2	1	0	0	0	16.3501	-0.356499	-0.356086	-0.00595023	2	-6.75196e-05	2.1188e-06
2	1	0	0	0	16.3701	-0.3545	-0.354085	-0.00580476	2	-6.76326e-05	2.05538e-06
2	1	0	0	0	16.3901	-0.352501	-0.35209	-0.00569298	2	-6.77428e-05	2.00444e-06
2	1	0	0	0	16.4101	-0.350502	-0.350089	-0.00554266	2	-6.78503e-05	1.94042e-06
2	1	0	0	0	16.4301	-0.348502	-0.348094	-0.00541662	2	-6.79552e-05	1.88549e-06
2	1	0	0	0	16.4501	-0.346503	-0.346098	-0.00527162	2	-6.80574e-05	1.8245e-06
2	1	0	0	0	16.4701	-0.344504	-0.344099	-0.00515321	2	-6.81571e-05	1.77322e-06
2	1	0	0	0	16.4901	-0.342505	-0.342101	-0.00505166	2	-6.82542e-05	1.72817e-06
2	1	0	0	0	16.5101	-0.340506	-0.340085	-0.00492994	2	-6.83489e-05	1.6766e-06
2	1	0	0	0	16.5451	-0.337007	-0.336595	-0.00459564	2	-6.8515e-05	1.54687e-06
2	1	0	0	0	16.58	-0.333515	-0.333114	-0.00430256	2	-6.8676e-05	1.43324e-06
2	1	0	1	0	16.5999	-0.331509	-0.331085	-0.00421062	2	-6.87601e-05	1.39407e-06
2	1	0	1	0	16.6199	-0.32951	-0.329093	-0.00408843	2	-6.88427e-05	1.34547e-06
2	1	0	1	0	16.6399	-0.327511	-0.327099	-0.00396477	2	-6.89228e-05	1.29687e-06
2	1	0	1	0	16.6599	-0.325512	-0.3251	-0.00386558	2	-6.90011e-05	1.2567e-06
2	1	0	1	0	16.6799	-0.323513	-0.323116	-0.00375355	2	-6.90771e-05	1.21283e-06
2	1	0	1	0	16.6999	-0.321513	-0.321108	-0.00364057	2	-6.91509e-05	1.16901e-06
2	1	0	1	0	16.7199	-0.319514	-0.319112	-0.00354211	2	-6.92226e-05	1.13033e-06
2	1	0	1	0	16.7399	-0.317515	-0.317094	-0.00345288	2	-6.92923e-05	1.09489e-06
2	1	0	1	0	16.7599	-0.315516	-0.315118	-0.00333255	2	-6.93598e-05	1.05015e-06
2	1	0	1	0	16.7799	-0.313517	-0.313114	-0.00324714	2	-6.94255e-05	1.01672e-06
2	1	0	1	0	16.7999	-0.311518	-0.311119	-0.00313554	2	-6.94892e-05	9.75527e-07
2	1	0	1	0	16.8199	-0.309518	-0.309104	-0.00303314	2	-6.95509e-05	9.37558e-07
2	1	0	1	0	16.8399	-0.307519	-0.307122	-0.00295002	2	-6.96105e-05	9.06016e-07
2	1	0	1	0	16.8599	-0.30552	-0.30511	-0.00284642	2	-6.96682e-05	8.6847e-07
2	1	0	1	0	16.8799	-0.303521	-0.303106	-0.00274359	2	-6.9724e-05	8.31597e-07
2	1	0	1	0	16.8999	-0.301522	-0.301109	-0.00265895	2	-6.97778e-05	8.00634e-07
2	1	0	1	0	16.9199	-0.299522	-0.299099	-0.00256588	2	-6.98298e-05	7.67453e-07
2	1	0	1	0	16.9399	-0.297523	-0.297125	-0.00246463	2	-6.988e-05	7.32301e-07
2	1	0	1	0	16.9599	-0.295524	-0.295123	-0.00236825	2	-6.99281e-05	6.98927e-07
2	1	0	1	0	16.9799	-0.293525	-0.293123	-0.0022851	2	-6.99745e-05	6.69817e-07
2	1	0	1	0	16.9999	-0.291526	-0.291113	-0.00219732	2	-7.00188e-05	6.39667e-07
2	1	0	1	0	17.0199	-0.289527	-0.289104	-0.00208566	2	-7.00614e-05	6.02972e-07
2	1	0	1	0	17.0399	-0.287527	-0.287104	-0.00200388	2	-7.0102e-05	5.7532e-07
2	1	0	1	0	17.0599	-0.285528	-0.285112	-0.00190075	2	-7.0141e-05	5.41927e-07
2	1	0	0	0	17.0797	-0.283529	-0.283106	-0.00180676	2	-7.01773e-05	5.11505e-07
2	1	0	0	0	17.0997	-0.28153	-0.281121	-0.00169706	2	-7.02123e-05	4.77078e-07
2	1	0	0	0	17.1197	-0.279531	-0.279105	-0.00162017	2	-7.02454e-05	4.52198e-07
2	1	0	0	0	17.1397	-0.277531	-0.277127	-0.00152636	2	-7.02767e-05	4.22996e-07
2	1	0	0	0	17.1597	-0.275532	-0.275115	-0.00143051	2	-7.03059e-05	3.93553e-07
2	1	0	0	0	17.1797	-0.273533	-0.273118	-0.00133318	2	-7.03333e-05	3.64117e-07
2	1	0	0	0	17.1997	-0.271534	-0.271113	-0.00121501	2	-7.03586e-05	3.29404e-07
2	1	0	0	0	17.2197	-0.269535	-0.269122	-0.00113022	2	-7.0382e-05	3.04168e-07
2	1	0	0	0	17.2397	-0.267536	-0.267127	-0.00102563	2	-7.04032e-05	2.73972e-07
2	1	0	0	0	17.2597	-0.265536	-0.265124	-0.000915493	2	-7.04223e-05	2.42719e-07
2	1	0	0	0	17.2797	-0.263537	-0.263122	-0.000827034	2	-7.04394e-05	2.17611e-07
2	1	0	0	0	17.2997	-0.261538	-0.261101	-0.000699902	2	-7.04543e-05	1.82745e-07
2	1	0	0	0	17.3197	-0.259539	-0.259118	-0.000594549	2	-7.0467e-05	1.54059e-07
2	1	0	0	0	17.3397	-0.25754	-0.257119	-0.000474096	2	-7.04774e-05	1.21899e-07
2	1	0	0	0	17.3597	-0.255541	-0.255116	-0.000345745	2	-7.04854e-05	8.82053e-08
2	1	0	0	0	17.3797	-0.253541	-0.253116	-0.000218099	2	-7.0491e-05	5.52044e-08
2	1	0	0	0	17.3997	-0.251542	-0.251123	-9.11183e-05	2	-7.04939e-05	2.28819e-08
2	1	0	0	0	17.4197	-0.249543	-0.249099	2.81128e-05	2	-7.04943e-05	7.00288e-09
2	1	0	0	0	17.4397	-0.247544	-0.247127	0.000183713	2	-7.04921e-05	4.54004e-08
2	1	0	0	0	17.4597	-0.245545	-0.24513	0.000307915	2	-7.0487e-05	7.54794e-08
2	1	0	0	0	17.4797	-0.243545	-0.243133	0.000452154	2	-7.0479e-05	1.09934e-07
2	1	0	0	0	17.4997	-0.241546	-0.241126	0.000652995	2	-7.04677e-05	1.57454e-07
2	1	0	0	0	17.5197	-0.239547	-0.23913	0.000791341	2	-7.04532e-05	1.89233e-07
2	1	0	0	0	17.5397	-0.237548	-0.23713	0.00095794	2	-7.04354e-05	2.27156e-07
2	1	0	0	0	17.5596	-0.235544	-0.235146	0.00116809	2	-7.04141e-05	2.74671e-07
2	1	0	1	0	17.5795	-0.23355	-0.233127	0.00132339	2	-7.0389e-05	3.08519e-07
2	1	0	1	0	17.5995	-0.23155	-0.231129	0.0015441	2	-7.03599e-05	3.56887e-07
2	1	0	1	0	17.6195	-0.229551	-0.229138	0.00173865	2	-7.03269e-05	3.9839e-07
2	1	0	1	0	17.6395	-0.227552	-0.227139	0.0019585	2	-7.02896e-05	4.44853e-07
2	1	0	1	0	17.6595	-0.225553	-0.225151	0.00220113	2	-7.02476e-05	4.95584e-07
2	1	0	1	0	17.6795	-0.223554	-0.223139	0.0024452	2	-7.02011e-05	5.45619e-07
2	1	0	1	0	17.6995	-0.221554	-0.22114	0.00269227	2	-7.01495e-05	5.9537e-07
2	1	0	1	0	17.7195	-0.219555	-0.219133	0.0029789	2	-7.00926e-05	6.52775e-07
2	1	0	1	0	17.7395	-0.217556	-0.217141	0.00323751	2	-7.00303e-05	7.02995e-07
2	1	0	1	0	17.7595	-0.215557	-0.215128	0.00354615	2	-6.99623e-05	7.62878e-07
2	1	0	1	0	17.7795	-0.213558	-0.213118	0.00385232	2	-6.98883e-05	8.21e-07
2	1	0	1	0	17.7995	-0.211559	-0.211123	0.00414581	2	-6.98082e-05	8.75277e-07
2	1	0	1	0	17.8195	-0.209559	-0.209114	0.00446462	2	-6.97218e-05	9.33614e-07
2	1	0	1	0	17.8395	-0.20756	-0.207131	0.00481339	2	-6.96288e-05	9.97003e-07
2	1	0	1	0	17.8595	-0.205561	-0.205127	0.00513915	2	-6.95291e-05	1.05418e-06
2	1	0	1	0	17.8795	-0.203562	-0.203131	0.00550184	2	-6.94224e-05	1.11759e-06
2	1	0	1	0	17.8995	-0.201563	-0.201134	0.0058522	2	-6.93087e-05	1.17707e-06
2	1	0	1	0	17.9195	-0.199564	-0.199126	0.0062058	2	-6.91879e-05	1.23574e-06
2	1	0	1	0	17.9395	-0.197564	-0.197117	0.00656184	2	-6.90602e-05	1.29345e-06
2	1	0	1	0	17.9595	-0.195565	-0.195124	0.00690311	2	-6.89253e-05	1.34697e-06
2	1	0	1	0	17.9795	-0.193566	-0.193114	0.00725692	2	-6.87834e-05	1.40141e-06
2	1	0	1	0	17.9995	-0.191567	-0.191114	0.00760012	2	-6.86348e-05	1.45249e-06
2	1	0	1	0	18.0195	-0.189568	-0.189102	0.00794035	2	-6.84792e-05	1.50154e-06
2	1	0	1	0	18.0395	-0.187568	-0.187112	0.00823411	2	-6.83172e-05	1.5407e-06
2	1	0	0	0	18.0593	-0.185569	-0.185102	0.00856143	2	-6.81504e-05	1.58474e-06
2	1	0	0	0	18.0793	-0.18357	-0.183096	0.00883895	2	-6.79764e-05	1.61837e-06
2	1	0	0	0	18.0993	-0.181571	-0.181109	0.00907895	2	-6.7797e-05	1.64428e-06
2	1	0	0	0	18.1193	-0.179572	-0.179087	0.00931445	2	-6.76126e-05	1.66809e-06
2	1	0	0	0	18.1393	-0.177573	-0.177115	0.00952421	2	-6.74239e-05	1.68688e-06
2	1	0	0	0	18.1593	-0.175573	-0.175104	0.0097151	2	-6.72312e-05	1.70115e-06
2	1	0	0	0	18.1793	-0.173574	-0.173089	0.00988709	2	-6.70349e-05	1.71135e-06
2	1	0	0	0	18.1993	-0.171575	-0.171114	0.0100067	2	-6.68359e-05	1.7123e-06
2	1	0	0	0	18.2193	-0.169576	-0.169114	0.0100764	2	-6.66346e-05	1.70406e-06
2	1	0	0	0	18.2393	-0.167577	-0.167127	0.0101866	2	-6.64316e-05	1.70245e-06
2	1	0	0	0	18.2593	-0.165577	-0.165112	0.0102402	2	-6.62274e-05	1.69078e-06
2	1	0	1	0	18.3103	-0.16048	-0.160028	0.0100407	2	-6.57021e-05	1.60679e-06
2	1	0	1	0	18.3303	-0.15848	-0.158036	0.00995317	2	-6.54973e-05	1.57296e-06
2	1	0	1	0	18.3503	-0.156481	-0.156029	0.00990097	2	-6.52935e-05	1.54484e-06
2	1	0	1	0	18.3703	-0.154482	-0.154035	0.00983355	2	-6.50911e-05	1.51471e-06
2	1	0	1	0	18.3903	-0.152483	-0.152037	0.00970418	2	-6.48905e-05	1.47539e-06
2	1	0	1	0	18.4103	-0.150484	-0.150033	0.00960956	2	-6.46917e-05	1.44175e-06
2	1	0	1	0	18.4303	-0.148484	-0.148019	0.00948937	2	-6.44953e-05	1.4046e-06
2	1	0	1	0	18.4503	-0.146485	-0.146023	0.00938888	2	-6.43014e-05	1.37099e-06
2	1	0	1	0	18.4703	-0.144486	-0.144027	0.0092237	2	-6.41102e-05	1.32846e-06
2	1	0	1	0	18.4903	-0.142487	-0.142044	0.00908551	2	-6.39218e-05	1.29055e-06
2	1	0	1	0	18.5103	-0.140488	-0.140027	0.00899575	2	-6.37362e-05	1.25965e-06
2	1	0	1	0	18.5302	-0.138493	-0.138039	0.00883364	2	-6.35543e-05	1.21939e-06
2	1	0	0	0	18.5501	-0.136489	-0.136029	0.00866827	2	-6.33752e-05	1.17914e-06
2	1	0	0	0	18.5701	-0.13449	-0.134027	0.00848558	2	-6.31983e-05	1.1373e-06
2	1	0	0	0	18.5901	-0.132491	-0.132032	0.00838886	2	-6.30247e-05	1.1076e-06
2	1	0	0	0	18.6101	-0.130492	-0.130048	0.00821947	2	-6.2854e-05	1.06893e-06
2	1	0	0	0	18.6301	-0.128493	-0.128033	0.00807468	2	-6.2686e-05	1.03383e-06
2	1	0	0	0	18.6501	-0.126493	-0.126032	0.00790583	2	-6.25211e-05	9.96387e-07
2	1	0	0	0	18.6701	-0.124494	-0.124056	0.00776104	2	-6.23591e-05	9.62807e-07
2	1	0	0	0	18.6901	-0.122495	-0.122063	0.00767529	2	-6.21996e-05	9.36865e-07
2	1	0	0	0	18.7101	-0.120496	-0.120069	0.00755033	2	-6.20427e-05	9.0656e-07
2	1	0	0	0	18.7301	-0.118497	-0.118051	0.00738566	2	-6.18884e-05	8.71881e-07
2	1	0	0	0	18.7501	-0.116498	-0.116064	0.00726316	2	-6.17365e-05	8.4299e-07
2	1	0	0	0	18.7701	-0.114498	-0.114065	0.00715139	2	-6.15871e-05	8.15724e-07
2	1	0	0	0	18.7901	-0.112499	-0.112062	0.0070648	2	-6.14398e-05	7.91694e-07
2	1	0	0	0	18.8101	-0.1105	-0.11006	0.00690656	2	-6.12947e-05	7.60135e-07
2	1	0	0	0	18.8301	-0.108501	-0.108053	0.00685035	2	-6.11518e-05	7.40199e-07
2	1	0	0	0	18.8501	-0.106502	-0.106064	0.00674102	2	-6.10109e-05	7.14983e-07
2	1	0	0	0	18.8701	-0.104503	-0.104067	0.00665349	2	-6.0872e-05	6.92411e-07
2	1	0	0	0	18.8901	-0.102503	-0.102051	0.00653175	2	-6.07349e-05	6.66569e-07
2	1	0	0	0	18.9101	-0.100504	-0.100051	0.00649361	2	-6.05994e-05	6.49692e-07
2	1	0	0	0	18.9301	-0.098505	-0.0980358	0.00641269	2	-6.04656e-05	6.28673e-07
2	1	0	0	0	18.9501	-0.0965058	-0.0960409	0.00627967	2	-6.03335e-05	6.03106e-07
2	1	0	0	0	18.9701	-0.0945066	-0.094055	0.00625094	2	-6.0203e-05	5.87933e-07
2	1	0	0	0	18.9901	-0.0925074	-0.0920613	0.00616583	2	-6.0074e-05	5.67634e-07
2	1	0	0	0	19.0101	-0.0905082	-0.0900603	0.0060857	2	-5.99463e-05	5.4808e-07
2	1	0	1	0	19.0299	-0.0885091	-0.0880502	0.0060408	2	-5.98209e-05	5.31894e-07
2	1	0	1	0	19.0499	-0.0865099	-0.0860607	0.00595014	2	-5.96955e-05	5.12074e-07
2	1	0	1	0	19.0699	-0.0845107	-0.0840521	0.00592227	2	-5.95715e-05	4.97779e-07
2	1	0	1	0	19.0899	-0.0825115	-0.0820496	0.0058619	2	-5.94487e-05	4.80967e-07
2	1	0	1	0	19.1099	-0.0805124	-0.0800497	0.00581702	2	-5.93271e-05	4.6565e-07
2	1	0	1	0	19.1299	-0.0785132	-0.0780606	0.00575746	2	-5.92064e-05	4.49431e-07
2	1	0	1	0	19.1499	-0.076514	-0.0760645	0.00573144	2	-5.90868e-05	4.35959e-07
2	1	0	1	0	19.1699	-0.0745148	-0.0740765	0.00562752	2	-5.89681e-05	4.16867e-07
2	1	0	1	0	19.1899	-0.0725156	-0.0720647	0.00562492	2	-5.88503e-05	4.05358e-07
2	1	0	1	0	19.2099	-0.0705165	-0.0700853	0.00556395	2	-5.87333e-05	3.89951e-07
2	1	0	1	0	19.2299	-0.0685173	-0.0680746	0.00550557	2	-5.86172e-05	3.7479e-07
2	1	0	1	0	19.2499	-0.0665181	-0.0660736	0.00548235	2	-5.85018e-05	3.62239e-07
2	1	0	1	0	19.2699	-0.0645189	-0.0640606	0.00547151	2	-5.83872e-05	3.50508e-07
2	1	0	1	0	19.2899	-0.0625197	-0.0620685	0.00543522	2	-5.82732e-05	3.37356e-07
2	1	0	1	0	19.3099	-0.0605206	-0.0600692	0.00543131	2	-5.81598e-05	3.26255e-07
2	1	0	1	0	19.3299	-0.0585214	-0.0580708	0.00537627	2	-5.80471e-05	3.12204e-07
2	1	0	1	0	19.3499	-0.0565222	-0.0560681	0.00533674	2	-5.7935e-05	2.99221e-07
2	1	0	1	0	19.3699	-0.054523	-0.0540428	0.00534053	2	-5.78235e-05	2.88617e-07
2	1	0	1	0	19.3899	-0.0525238	-0.0520779	0.00526744	2	-5.77125e-05	2.74317e-07
2	1	0	1	0	19.4099	-0.0505247	-0.0500748	0.00523424	2	-5.76022e-05	2.62103e-07
2	1	0	1	0	19.4299	-0.0485255	-0.0480863	0.00520798	2	-5.74923e-05	2.50433e-07
2	1	0	1	0	19.4499	-0.0465263	-0.0460747	0.00516985	2	-5.73828e-05	2.382e-07
2	1	0	1	0	19.4699	-0.0445271	-0.0440591	0.00520709	2	-5.72737e-05	2.2942e-07
2	1	0	1	0	19.4899	-0.0425279	-0.0420749	0.00517006	2	-5.71651e-05	2.1753e-07
2	1	0	1	0	19.5098	-0.0405242	-0.0400785	0.0051721	2	-5.70573e-05	2.0729e-07
2	1	0	0	0	19.5297	-0.0385296	-0.0380895	0.00510124	2	-5.69497e-05	1.94304e-07
2	1	0	0	0	19.5497	-0.0365304	-0.036076	0.00513577	2	-5.6842e-05	1.85278e-07
2	1	0	0	0	19.5697	-0.0345312	-0.0340892	0.00508573	2	-5.67347e-05	1.73369e-07
2	1	0	0	0	19.5897	-0.032532	-0.0320728	0.00508582	2	-5.66276e-05	1.63116e-07
2	1	0	0	0	19.6097	-0.0305329	-0.0300809	0.00503131	2	-5.65209e-05	1.51347e-07
2	1	0	0	0	19.6297	-0.0285337	-0.0280751	0.00505715	2	-5.64146e-05	1.4198e-07
2	1	0	0	0	19.6497	-0.0265345	-0.0260584	0.00500885	2	-5.63084e-05	1.30523e-07
2	1	0	0	0	19.6697	-0.0245353	-0.0240863	0.0050089	2	-5.62026e-05	1.20646e-07
2	1	0	0	0	19.6897	-0.0225361	-0.0220902	0.00501886	2	-5.60969e-05	1.10868e-07
2	1	0	0	0	19.7097	-0.020537	-0.020081	0.00498559	2	-5.59913e-05	1.00115e-07
2	1	0	0	0	19.7297	-0.0185378	-0.0180844	0.0049849	2	-5.5886e-05	9.0149e-08
2	1	0	0	0	19.7497	-0.0165386	-0.0160987	0.00497605	2	-5.57808e-05	8.0108e-08
2	1	0	0	0	19.7697	-0.0145394	-0.0140914	0.0049853	2	-5.56758e-05	7.02498e-08
2	1	0	0	0	19.7897	-0.0125402	-0.0120936	0.00496585	2	-5.55709e-05	6.0055e-08
2	1	0	0	0	19.8097	-0.0105411	-0.010095	0.00498194	2	-5.5466e-05	5.02925e-08
2	1	0	0	0	19.8297	-0.00854188	-0.00807385	0.00494933	2	-5.53614e-05	3.99601e-08
2	1	0	0	0	19.8497	-0.0065427	-0.00609343	0.00495725	2	-5.52568e-05	3.02066e-08
2	1	0	0	0	19.8697	-0.00454352	-0.00410433	0.00498424	2	-5.51525e-05	2.0457e-08
2	1	0	0	0	19.8897	-0.00254434	-0.00210272	0.00495694	2	-5.5048e-05	1.04231e-08
2	1	0	0	0	19.9097	-0.00054516	-9.15766e-05	0.00494297	2	-5.49437e-05	4.52661e-10
2	1	0	0	0	19.9297	0.00145402	0.00191003	0.00497886	2	-5.48393e-05	9.50977e-09
2	1	0	0	0	19.9497	0.0034532	0.00390401	0.00496051	2	-5.47349e-05	1.93659e-08
2	1	0	0	0	19.9697	0.00545238	0.00591537	0.00498574	2	-5.46305e-05	2.94925e-08
2	1	0	0	0	19.9897	0.00745156	0.0079157	0.00493374	2	-5.45264e-05	3.9054e-08
2	1	0	1	0	19.9965	0.00815127	0.00861435	0.00502471	2	-5.44907e-05	4.32846e-08