File: TAP_Report/Data/MB_Suscept/6_pk_noanti_3_C01_2.mpt
EC-Lab ASCII FILE
Nb header lines : 56

Cyclic Voltammetry

Run on channel : 1 (SN 0696)
User :
Electrode connection : standard
Ewe ctrl range : min = -2.50 V, max = 2.50 V
Ewe,I filtering : 50 kHz
Safety Limits :
	Do not start on E overload
Channel : Floating
Acquisition started on : 09/12/2016 16:31:23
Saved on :
	File : 6_pk_noanti_3_C01.mpr
	Directory : \\userfs\st659\w2k\EC-Lab\Data\Meth_Blue 12-09-16\
	Host : 144.32.136.43
Device : SP-300 (SN 0182)
Address : USB
EC-Lab for windows v10.44 (software)
Internet server v10.44 (firmware)
Command interpretor v10.44 (firmware)
Electrode material :
Initial state :
Electrolyte :
Comments :
Cable : standard
Reference electrode : SCE Saturated Calomel Electrode (0.241 V)
Electrode surface area : 0.001 cm²
Characteristic mass : 0.001 g
Equivalent Weight : 0.000 g/eq.
Density : 0.000 g/cm3
Ei (V)              0.000
vs.                 Eoc
dE/dt               100.000
dE/dt unit          mV/s
E1 (V)              0.100
vs.                 Ref
Step percent        50
N                   10
E range min (V)     -2.500
E range max (V)     2.500
I Range             Auto
I Range min         Unset
I Range max         Unset
I Range init        Unset
Bandwidth           8
E2 (V)              -0.400
vs.                 Ref
nc cycles           2
Reverse Scan        1
Ef (V)              0.000
vs.                 Eoc

mode	ox/red	error	control changes	counter inc.	time/s	control/V	Ewe/V	<I>/mA	cycle number	(Q-Qo)/C	P/W
2	1	0	0	1	9.9648	-0.0256793	-0.0252478	0.00472379	2	-2.89044e-05	1.19265e-07
2	1	0	1	1	9.9803	-0.0241299	-0.023682	0.00476808	2	-2.88262e-05	1.12918e-07
2	1	0	1	1	10.0003	-0.0221308	-0.0216958	0.00476426	2	-2.87258e-05	1.03365e-07
2	1	0	1	1	10.0203	-0.0201316	-0.0196853	0.00476949	2	-2.86255e-05	9.3889e-08
2	1	0	1	1	10.0403	-0.0181324	-0.0176882	0.00473164	2	-2.85256e-05	8.3694e-08
2	1	0	1	1	10.0603	-0.0161332	-0.0156887	0.00470364	2	-2.84258e-05	7.37938e-08
2	1	0	1	1	10.0803	-0.014134	-0.0136862	0.00470279	2	-2.83263e-05	6.43634e-08
2	1	0	1	1	10.1003	-0.0121349	-0.0117001	0.00468114	2	-2.8227e-05	5.47698e-08
2	1	0	1	1	10.1203	-0.0101357	-0.00969106	0.00468232	2	-2.81278e-05	4.53767e-08
2	1	0	1	1	10.1403	-0.00813651	-0.00769857	0.00464492	2	-2.80288e-05	3.57592e-08
2	1	0	1	1	10.1603	-0.00613733	-0.00568382	0.00465632	2	-2.793e-05	2.64657e-08
2	1	0	1	1	10.1803	-0.00413815	-0.00369535	0.00468137	2	-2.78314e-05	1.72993e-08
2	1	0	1	1	10.2003	-0.00213897	-0.00169565	0.0046577	2	-2.77328e-05	7.89784e-09
2	1	0	1	1	10.2203	-0.000139791	0.000306379	0.00466348	2	-2.76344e-05	1.42879e-09
2	1	0	1	1	10.2403	0.00185939	0.00232282	0.00464744	2	-2.75359e-05	1.07952e-08
2	1	0	1	1	10.2603	0.00385857	0.00429688	0.00464449	2	-2.74377e-05	1.99568e-08
2	1	0	1	1	10.2803	0.00585774	0.00630866	0.00465258	2	-2.73395e-05	2.93515e-08
2	1	0	1	1	10.3003	0.00785692	0.00831069	0.00463769	2	-2.72415e-05	3.85424e-08
2	1	0	1	1	10.3203	0.0098561	0.0103021	0.00464582	2	-2.71435e-05	4.78618e-08
2	1	0	1	1	10.3403	0.0118553	0.012326	0.00464273	2	-2.70455e-05	5.72262e-08
2	1	0	1	1	10.3603	0.0138545	0.0143238	0.00465658	2	-2.69474e-05	6.66997e-08
2	1	0	1	1	10.3803	0.0158536	0.0163228	0.00460426	2	-2.68494e-05	7.51546e-08
2	1	0	1	1	10.4003	0.0178528	0.0183249	0.00464815	2	-2.67514e-05	8.51768e-08
2	1	0	1	1	10.4203	0.019852	0.0203161	0.00462552	2	-2.66536e-05	9.39725e-08
2	1	0	1	1	10.4403	0.0218512	0.0223111	0.00459672	2	-2.65557e-05	1.02558e-07
2	1	0	0	1	10.4601	0.0238503	0.0242994	0.00460455	2	-2.64585e-05	1.11888e-07
2	1	0	0	1	10.4801	0.0258495	0.0263143	0.00464155	2	-2.63605e-05	1.22139e-07
2	1	0	0	1	10.5001	0.0278487	0.0283064	0.00463036	2	-2.62624e-05	1.31069e-07
2	1	0	0	1	10.5201	0.0298479	0.030301	0.00464585	2	-2.61643e-05	1.40774e-07
2	1	0	0	1	10.5401	0.0318471	0.032305	0.00463189	2	-2.60661e-05	1.49633e-07
2	1	0	0	1	10.5601	0.0338462	0.0342992	0.00463594	2	-2.59678e-05	1.59009e-07
2	1	0	0	1	10.5801	0.0358454	0.0363008	0.00462657	2	-2.58694e-05	1.67948e-07
2	1	0	0	1	10.6001	0.0378446	0.0382918	0.00465217	2	-2.57709e-05	1.7814e-07
2	1	0	0	1	10.6201	0.0398438	0.0402821	0.0046664	2	-2.56722e-05	1.87972e-07
2	1	0	0	1	10.6401	0.041843	0.0422897	0.00469362	2	-2.55735e-05	1.98492e-07
2	1	0	0	1	10.6601	0.0438421	0.0442966	0.00467011	2	-2.54745e-05	2.0687e-07
2	1	0	0	1	10.6801	0.0458413	0.0462838	0.00467806	2	-2.53755e-05	2.16518e-07
2	1	0	0	1	10.7001	0.0478405	0.0482987	0.00470708	2	-2.52763e-05	2.27346e-07
2	1	0	0	1	10.7201	0.0498397	0.0502912	0.00467596	2	-2.5177e-05	2.3516e-07
2	1	0	0	1	10.7401	0.0518388	0.0523056	0.00472588	2	-2.50775e-05	2.4719e-07
2	1	0	0	1	10.7601	0.053838	0.0542913	0.00475091	2	-2.49777e-05	2.57933e-07
2	1	0	0	1	10.7801	0.0558372	0.0562897	0.00472753	2	-2.48778e-05	2.66111e-07
2	1	0	0	1	10.8001	0.0578364	0.0582911	0.00476959	2	-2.47776e-05	2.78024e-07
2	1	0	0	1	10.8201	0.0598356	0.0602876	0.00476335	2	-2.46773e-05	2.87171e-07
2	1	0	0	1	10.8401	0.0618347	0.0622956	0.00475859	2	-2.45765e-05	2.96439e-07
2	1	0	0	1	10.8601	0.0638339	0.0642851	0.0048048	2	-2.44756e-05	3.08877e-07
2	1	0	0	1	10.8801	0.0658331	0.0663011	0.00482719	2	-2.43743e-05	3.20048e-07
2	1	0	0	1	10.9001	0.0678323	0.0682974	0.00480659	2	-2.42729e-05	3.28278e-07
2	1	0	0	1	10.9201	0.0698315	0.0702806	0.00482913	2	-2.41712e-05	3.39394e-07
2	1	0	1	1	10.9399	0.0718306	0.0722945	0.00482592	2	-2.40699e-05	3.48887e-07
2	1	0	1	1	10.9599	0.0738298	0.0742845	0.00484538	2	-2.39675e-05	3.59936e-07
2	1	0	1	1	10.9799	0.075829	0.0762892	0.00490358	2	-2.38647e-05	3.74091e-07
2	1	0	1	1	10.9999	0.0778282	0.0782752	0.0048786	2	-2.37617e-05	3.81873e-07
2	1	0	1	1	11.0199	0.0798273	0.0802746	0.00489602	2	-2.36584e-05	3.93026e-07
2	1	0	1	1	11.0399	0.0818265	0.0822593	0.00489997	2	-2.35545e-05	4.03068e-07
2	1	0	1	1	11.0599	0.0838257	0.0842768	0.00499534	2	-2.34504e-05	4.20992e-07
2	1	0	1	1	11.0799	0.0858249	0.0862646	0.00497564	2	-2.33459e-05	4.29222e-07
2	1	0	1	1	11.0999	0.0878241	0.0882624	0.00500265	2	-2.32408e-05	4.41546e-07
2	1	0	1	1	11.1199	0.0898232	0.0902619	0.00500741	2	-2.31355e-05	4.51978e-07
2	1	0	1	1	11.1399	0.0918224	0.0922794	0.00504649	2	-2.30295e-05	4.65687e-07
2	1	0	1	1	11.1599	0.0938216	0.0942666	0.00506943	2	-2.29232e-05	4.77878e-07
2	1	0	1	1	11.1799	0.0958208	0.0962686	0.00506769	2	-2.28164e-05	4.8786e-07
2	1	0	1	1	11.1999	0.0978199	0.0982616	0.00511867	2	-2.27093e-05	5.02969e-07
2	1	0	1	1	11.2179	0.0996192	0.10006	0.00514516	2	-2.26123e-05	5.14822e-07
2	0	0	0	1	11.2273	0.0994193	0.0998045	0.00312735	2	-2.25753e-05	3.12124e-07
2	0	0	0	1	11.2473	0.0974201	0.0978145	0.00221046	2	-2.25288e-05	2.16215e-07
2	0	0	0	1	11.2673	0.0954209	0.0958174	0.00175736	2	-2.24945e-05	1.68385e-07
2	0	0	0	1	11.2873	0.0934217	0.0938215	0.00148506	2	-2.24674e-05	1.3933e-07
2	0	0	0	1	11.3073	0.0914226	0.0918224	0.0012373	2	-2.24454e-05	1.13611e-07
2	0	0	0	1	11.3273	0.0894234	0.0898136	0.0010061	2	-2.24277e-05	9.03618e-08
2	0	0	0	1	11.3473	0.0874242	0.0878171	0.00089892	2	-2.24134e-05	7.89405e-08
2	0	0	0	1	11.3673	0.085425	0.0858212	0.000764116	2	-2.24021e-05	6.55774e-08
2	0	0	1	1	11.4183	0.0803271	0.0807107	0.000183209	2	-2.23818e-05	1.47869e-08
2	0	0	1	1	11.4383	0.078328	0.0787118	6.87844e-05	2	-2.23794e-05	5.41414e-09
2	0	0	1	1	11.4583	0.0763288	0.076707	-1.29264e-05	2	-2.23789e-05	9.91546e-10
2	0	0	1	1	11.4783	0.0743296	0.0747069	-0.00010026	2	-2.23803e-05	7.49014e-09
2	0	0	1	1	11.4983	0.0723304	0.0727136	-0.000172271	2	-2.23832e-05	1.25264e-08
2	0	0	0	1	11.5181	0.0703312	0.07073	-0.000250931	2	-2.23878e-05	1.77483e-08
2	0	0	0	1	11.5381	0.0683321	0.0687241	-0.000335191	2	-2.23938e-05	2.30357e-08
2	0	0	0	1	11.5581	0.0663329	0.0667181	-0.000388776	2	-2.24011e-05	2.59384e-08
2	0	0	0	1	11.5781	0.0643337	0.0647143	-0.000439038	2	-2.24099e-05	2.84121e-08
2	0	0	0	1	11.5981	0.0623345	0.0627252	-0.000522069	2	-2.24197e-05	3.27469e-08
2	0	0	0	1	11.6181	0.0603354	0.060716	-0.000563737	2	-2.24307e-05	3.42279e-08
2	0	0	0	1	11.6381	0.0583362	0.0587119	-0.000610654	2	-2.24426e-05	3.58526e-08
2	0	0	0	1	11.6581	0.056337	0.0567162	-0.000672793	2	-2.24557e-05	3.81583e-08
2	0	0	0	1	11.6781	0.0543378	0.0546951	-0.000722832	2	-2.24698e-05	3.95354e-08
2	0	0	0	1	11.6981	0.0523386	0.0527119	-0.000754038	2	-2.24848e-05	3.97468e-08
2	0	0	0	1	11.7181	0.0503395	0.0507156	-0.000806879	2	-2.25007e-05	4.09214e-08
2	0	0	0	1	11.7381	0.0483403	0.0487021	-0.000844743	2	-2.25175e-05	4.11408e-08
2	0	0	0	1	11.7581	0.0463411	0.0467247	-0.000897811	2	-2.25351e-05	4.19499e-08
2	0	0	0	1	11.7781	0.0443419	0.0447193	-0.000920407	2	-2.25534e-05	4.11599e-08
2	0	0	0	1	11.7981	0.0423427	0.0427098	-0.000974612	2	-2.25727e-05	4.16255e-08
2	0	0	0	1	11.8181	0.0403436	0.0407167	-0.00100427	2	-2.25926e-05	4.08907e-08
2	0	0	0	1	11.8381	0.0383444	0.0387199	-0.00104615	2	-2.26132e-05	4.0507e-08
2	0	0	0	1	11.8581	0.0363452	0.0367196	-0.00108234	2	-2.26346e-05	3.97431e-08
2	0	0	0	1	11.8781	0.034346	0.0347152	-0.0011088	2	-2.26566e-05	3.84922e-08
2	0	0	0	1	11.8981	0.0323469	0.032723	-0.00113988	2	-2.26792e-05	3.73004e-08
2	0	0	0	1	11.9181	0.0303477	0.0307122	-0.00117803	2	-2.27026e-05	3.61798e-08
2	0	0	0	1	11.9381	0.0283485	0.0287304	-0.0011992	2	-2.27264e-05	3.44536e-08
2	0	0	0	1	11.9581	0.0263493	0.0267273	-0.00121232	2	-2.27509e-05	3.2402e-08
2	0	0	0	1	11.9781	0.0243501	0.0247201	-0.00125329	2	-2.27758e-05	3.09815e-08
2	0	0	0	1	11.998	0.0223441	0.0227087	-0.00131085	2	-2.28014e-05	2.97677e-08
2	0	0	1	1	12.0179	0.0203518	0.0207243	-0.00130435	2	-2.28277e-05	2.70319e-08
2	0	0	1	1	12.0379	0.0183526	0.018734	-0.00134548	2	-2.28543e-05	2.52062e-08
2	0	0	1	1	12.0579	0.0163534	0.016743	-0.00135896	2	-2.28816e-05	2.27531e-08
2	0	0	1	1	12.0779	0.0143543	0.0147373	-0.00139924	2	-2.29094e-05	2.0621e-08
2	0	0	1	1	12.0979	0.0123551	0.0127315	-0.00141719	2	-2.29376e-05	1.80429e-08
2	0	0	1	1	12.1179	0.0103559	0.0107305	-0.00144678	2	-2.29666e-05	1.55247e-08
2	0	0	1	1	12.1379	0.00835672	0.00871152	-0.00146724	2	-2.29957e-05	1.27818e-08
2	0	0	1	1	12.1579	0.00635754	0.00671055	-0.00149014	2	-2.30253e-05	9.99964e-09
2	0	0	1	1	12.1779	0.00435836	0.00472823	-0.00151386	2	-2.30555e-05	7.15786e-09
2	0	0	1	1	12.1979	0.00235918	0.00272853	-0.00152988	2	-2.30861e-05	4.17433e-09
2	0	0	1	1	12.2179	0.000357748	0.000707633	-0.00155893	2	-2.31174e-05	1.10315e-09
2	0	0	1	1	12.2379	-0.00163918	-0.0012821	-0.00157956	2	-2.31488e-05	2.02516e-09
2	0	0	1	1	12.2579	-0.00363836	-0.00329325	-0.00160286	2	-2.31808e-05	5.27862e-09
2	0	0	1	1	12.2779	-0.00563753	-0.00526815	-0.00161801	2	-2.32133e-05	8.5239e-09
2	0	0	1	1	12.2979	-0.00763671	-0.00726616	-0.00164912	2	-2.32459e-05	1.19828e-08
2	0	0	1	1	12.3179	-0.00963589	-0.00926798	-0.00165397	2	-2.32792e-05	1.5329e-08
2	0	0	1	1	12.3379	-0.0116351	-0.0112719	-0.00169807	2	-2.33128e-05	1.91405e-08
2	0	0	1	1	12.3579	-0.0136343	-0.0132763	-0.00170643	2	-2.33468e-05	2.2655e-08
2	0	0	1	1	12.3779	-0.0156334	-0.0152501	-0.00172008	2	-2.33813e-05	2.62314e-08
2	0	0	1	1	12.3979	-0.0176326	-0.0172664	-0.00173925	2	-2.34161e-05	3.00306e-08
2	0	0	1	1	12.4179	-0.0196318	-0.01928	-0.00175467	2	-2.34512e-05	3.38301e-08
2	0	0	1	1	12.4379	-0.021631	-0.0212632	-0.00178056	2	-2.34868e-05	3.78603e-08
2	0	0	1	1	12.4579	-0.0236301	-0.0232657	-0.00180124	2	-2.35228e-05	4.1907e-08
2	0	0	1	1	12.4778	-0.0256202	-0.0252414	-0.00183153	2	-2.35589e-05	4.62304e-08
2	0	0	0	1	12.4977	-0.0276285	-0.0272644	-0.00185042	2	-2.35957e-05	5.04505e-08
2	0	0	0	1	12.5177	-0.0296277	-0.029272	-0.00185999	2	-2.36329e-05	5.44456e-08
2	0	0	0	1	12.5377	-0.0316269	-0.0312579	-0.00187566	2	-2.36704e-05	5.86291e-08
2	0	0	0	1	12.5577	-0.033626	-0.0332576	-0.00189074	2	-2.37082e-05	6.28814e-08
2	0	0	0	1	12.5777	-0.0356252	-0.0352622	-0.00190203	2	-2.37464e-05	6.70698e-08
2	0	0	0	1	12.5977	-0.0376244	-0.0372826	-0.00194145	2	-2.37851e-05	7.23824e-08
2	0	0	0	1	12.6177	-0.0396236	-0.0392546	-0.00194908	2	-2.38241e-05	7.65102e-08
2	0	0	0	1	12.6377	-0.0416228	-0.041271	-0.00196802	2	-2.38635e-05	8.12222e-08
2	0	0	0	1	12.6577	-0.0436219	-0.0432478	-0.00197838	2	-2.39031e-05	8.55607e-08
2	0	0	0	1	12.6777	-0.0456211	-0.0452488	-0.00200833	2	-2.39432e-05	9.08747e-08
2	0	0	0	1	12.6977	-0.0476203	-0.0472561	-0.00203738	2	-2.39837e-05	9.62787e-08
2	0	0	0	1	12.7177	-0.0496195	-0.0492647	-0.00205321	2	-2.40246e-05	1.01151e-07
2	0	0	0	1	12.7377	-0.0516187	-0.0512528	-0.00205087	2	-2.40658e-05	1.05113e-07
2	0	0	0	1	12.7577	-0.0536178	-0.0532512	-0.00207635	2	-2.41074e-05	1.10568e-07
2	0	0	0	1	12.7777	-0.055617	-0.0552677	-0.00210068	2	-2.41494e-05	1.161e-07
2	0	0	0	1	12.7977	-0.0576162	-0.0572574	-0.00213245	2	-2.41916e-05	1.22099e-07
2	0	0	0	1	12.8177	-0.0596154	-0.0592463	-0.00213361	2	-2.42343e-05	1.26409e-07
2	0	0	0	1	12.8377	-0.0616146	-0.0612509	-0.00214674	2	-2.42774e-05	1.3149e-07
2	0	0	0	1	12.8577	-0.0636137	-0.0632607	-0.00218642	2	-2.4321e-05	1.38315e-07
2	0	0	0	1	12.8777	-0.0656129	-0.0652458	-0.00221086	2	-2.43649e-05	1.44249e-07
2	0	0	0	1	12.8977	-0.0676121	-0.0672582	-0.00220626	2	-2.44091e-05	1.48389e-07
2	0	0	0	1	12.9177	-0.0696113	-0.0692541	-0.00222873	2	-2.44537e-05	1.54349e-07
2	0	0	0	1	12.9377	-0.0716104	-0.0712542	-0.0022563	2	-2.44988e-05	1.60771e-07
2	0	0	0	1	12.9577	-0.0736096	-0.0732493	-0.00228214	2	-2.45445e-05	1.67165e-07
2	0	0	1	1	12.9775	-0.0756088	-0.0752494	-0.00228352	2	-2.459e-05	1.71833e-07
2	0	0	1	1	12.9975	-0.077608	-0.0772447	-0.00231251	2	-2.46364e-05	1.78629e-07
2	0	0	1	1	13.0175	-0.0796072	-0.0792278	-0.00234348	2	-2.46832e-05	1.85669e-07
2	0	0	1	1	13.0375	-0.0816063	-0.0812335	-0.00236711	2	-2.47305e-05	1.92289e-07
2	0	0	1	1	13.0575	-0.0836055	-0.083231	-0.00238929	2	-2.47781e-05	1.98863e-07
2	0	0	1	1	13.0775	-0.0856047	-0.0852165	-0.0024128	2	-2.48263e-05	2.05611e-07
2	0	0	1	1	13.0975	-0.0876039	-0.0872232	-0.00244666	2	-2.48749e-05	2.13406e-07
2	0	0	1	1	13.1175	-0.0896031	-0.0892335	-0.00247175	2	-2.49243e-05	2.20563e-07
2	0	0	1	1	13.1375	-0.0916022	-0.0912313	-0.00249869	2	-2.4974e-05	2.27959e-07
2	0	0	1	1	13.1575	-0.0936014	-0.093223	-0.00250873	2	-2.50243e-05	2.33871e-07
2	0	0	1	1	13.1775	-0.0956006	-0.0952227	-0.00254707	2	-2.5075e-05	2.42539e-07
2	0	0	1	1	13.1975	-0.0975998	-0.0972245	-0.00259031	2	-2.51265e-05	2.51841e-07
2	0	0	1	1	13.2175	-0.099599	-0.0992291	-0.00260183	2	-2.51784e-05	2.58177e-07
2	0	0	1	1	13.2375	-0.101598	-0.101248	-0.00265161	2	-2.52313e-05	2.68472e-07
2	0	0	1	1	13.2575	-0.103597	-0.103256	-0.00267009	2	-2.52847e-05	2.75702e-07
2	0	0	1	1	13.2775	-0.105596	-0.105239	-0.00270861	2	-2.53388e-05	2.85051e-07
2	0	0	1	1	13.2975	-0.107596	-0.107231	-0.00273401	2	-2.53935e-05	2.9317e-07
2	0	0	1	1	13.3175	-0.109595	-0.109215	-0.00278706	2	-2.54492e-05	3.04388e-07
2	0	0	1	1	13.3375	-0.111594	-0.111228	-0.00283272	2	-2.55056e-05	3.15078e-07
2	0	0	1	1	13.3575	-0.113593	-0.113226	-0.00288644	2	-2.55629e-05	3.26821e-07
2	0	0	1	1	13.3775	-0.115592	-0.115223	-0.00293157	2	-2.56213e-05	3.37783e-07
2	0	0	1	1	13.3975	-0.117592	-0.117247	-0.00301456	2	-2.56808e-05	3.53447e-07
2	0	0	1	1	13.4175	-0.119591	-0.119246	-0.00305214	2	-2.57412e-05	3.63957e-07
2	0	0	1	1	13.4375	-0.12159	-0.121233	-0.00310439	2	-2.58028e-05	3.76355e-07
2	0	0	1	1	13.4574	-0.123591	-0.12323	-0.00320476	2	-2.58654e-05	3.94921e-07
2	0	0	0	1	13.4773	-0.125588	-0.125228	-0.00322855	2	-2.59295e-05	4.04304e-07
2	0	0	0	1	13.4973	-0.127587	-0.127228	-0.0033081	2	-2.59952e-05	4.20882e-07
2	0	0	0	1	13.5173	-0.129587	-0.129227	-0.00339677	2	-2.60624e-05	4.38955e-07
2	0	0	0	1	13.5373	-0.131586	-0.131212	-0.00347289	2	-2.61314e-05	4.55684e-07
2	0	0	0	1	13.5573	-0.133585	-0.133214	-0.00356789	2	-2.62021e-05	4.75293e-07
2	0	0	0	1	13.5773	-0.135584	-0.135218	-0.00368909	2	-2.62749e-05	4.98832e-07
2	0	0	0	1	13.5973	-0.137583	-0.137227	-0.00379997	2	-2.635e-05	5.21457e-07
2	0	0	0	1	13.6173	-0.139583	-0.139217	-0.00391965	2	-2.64273e-05	5.4568e-07
2	0	0	0	1	13.6373	-0.141582	-0.141233	-0.00403616	2	-2.6507e-05	5.70039e-07
2	0	0	0	1	13.6573	-0.143581	-0.143239	-0.00418624	2	-2.65896e-05	5.99632e-07
2	0	0	0	1	13.6773	-0.14558	-0.145225	-0.00433561	2	-2.66749e-05	6.29637e-07
2	0	0	0	1	13.6973	-0.147579	-0.147238	-0.00448534	2	-2.67632e-05	6.60412e-07
2	0	0	0	1	13.7173	-0.149578	-0.149225	-0.00466917	2	-2.68551e-05	6.96756e-07
2	0	0	0	1	13.7373	-0.151578	-0.151237	-0.00485947	2	-2.69505e-05	7.34934e-07
2	0	0	0	1	13.7573	-0.153577	-0.153242	-0.00506167	2	-2.70498e-05	7.75659e-07
2	0	0	0	1	13.7773	-0.155576	-0.155235	-0.00527509	2	-2.71531e-05	8.18878e-07
2	0	0	0	1	13.7973	-0.157575	-0.15722	-0.00548341	2	-2.72609e-05	8.62102e-07
2	0	0	0	1	13.8173	-0.159574	-0.159218	-0.00572376	2	-2.73732e-05	9.11322e-07
2	0	0	0	1	13.8373	-0.161574	-0.161211	-0.00598158	2	-2.74902e-05	9.64298e-07
2	0	0	0	1	13.8573	-0.163573	-0.163214	-0.00623131	2	-2.76126e-05	1.01704e-06
2	0	0	0	1	13.8773	-0.165572	-0.165254	-0.0065139	2	-2.77403e-05	1.07645e-06
2	0	0	0	1	13.8973	-0.167571	-0.16723	-0.00680442	2	-2.78737e-05	1.1379e-06
2	0	0	0	1	13.9173	-0.16957	-0.169248	-0.00710436	2	-2.80129e-05	1.2024e-06
2	0	0	0	1	13.9373	-0.171569	-0.171238	-0.00738606	2	-2.8158e-05	1.26477e-06
2	0	0	1	1	13.9571	-0.173569	-0.173233	-0.00770248	2	-2.8308e-05	1.33432e-06
2	0	0	1	1	13.9771	-0.175568	-0.175236	-0.00801676	2	-2.84654e-05	1.40482e-06
2	0	0	1	1	13.9971	-0.177567	-0.177222	-0.00833766	2	-2.86293e-05	1.47761e-06
2	0	0	1	1	14.0171	-0.179566	-0.179209	-0.00864905	2	-2.87993e-05	1.54999e-06
2	0	0	1	1	14.0371	-0.181565	-0.181221	-0.0089799	2	-2.89759e-05	1.62735e-06
2	0	0	1	1	14.0571	-0.183564	-0.183235	-0.00928839	2	-2.91587e-05	1.70196e-06
2	0	0	1	1	14.0771	-0.185564	-0.185234	-0.00959185	2	-2.93476e-05	1.77673e-06
2	0	0	1	1	14.0971	-0.187563	-0.187227	-0.00991253	2	-2.95428e-05	1.8559e-06
2	0	0	1	1	14.1171	-0.189562	-0.189227	-0.0101836	2	-2.97439e-05	1.92701e-06
2	0	0	0	1	14.1681	-0.19466	-0.194296	-0.0105902	2	-3.02771e-05	2.05763e-06
2	0	0	0	1	14.1881	-0.196659	-0.196299	-0.0108687	2	-3.04972e-05	2.13352e-06
2	0	0	0	1	14.2081	-0.198658	-0.198299	-0.011078	2	-3.0722e-05	2.19676e-06
2	0	0	0	1	14.2281	-0.200657	-0.200311	-0.0113451	2	-3.09514e-05	2.27255e-06
2	0	0	0	1	14.2481	-0.202657	-0.2023	-0.0115663	2	-3.11853e-05	2.33987e-06
2	0	0	0	1	14.2681	-0.204656	-0.204319	-0.0117417	2	-3.14233e-05	2.39906e-06
2	0	0	0	1	14.2881	-0.206655	-0.206306	-0.0118935	2	-3.16647e-05	2.45371e-06
2	0	0	0	1	14.3081	-0.208654	-0.208302	-0.0120848	2	-3.19097e-05	2.5173e-06
2	0	0	0	1	14.3281	-0.210653	-0.210294	-0.0121924	2	-3.21575e-05	2.56399e-06
2	0	0	0	1	14.3481	-0.212653	-0.212308	-0.012304	2	-3.24082e-05	2.61224e-06
2	0	0	0	1	14.3681	-0.214652	-0.214305	-0.0124334	2	-3.26613e-05	2.66453e-06
2	0	0	0	1	14.3881	-0.216651	-0.216305	-0.012535	2	-3.29165e-05	2.71139e-06
2	0	0	0	1	14.4081	-0.21865	-0.218311	-0.0126545	2	-3.31737e-05	2.76263e-06
2	0	0	0	1	14.428	-0.220645	-0.220308	-0.0127597	2	-3.34315e-05	2.81106e-06
2	0	0	1	1	14.4479	-0.222648	-0.222309	-0.0128227	2	-3.36908e-05	2.85059e-06
2	0	0	1	1	14.4679	-0.224648	-0.224301	-0.0128298	2	-3.39522e-05	2.87774e-06
2	0	0	1	1	14.4879	-0.226647	-0.226299	-0.0129023	2	-3.42148e-05	2.91979e-06
2	0	0	1	1	14.5079	-0.228646	-0.228295	-0.0129313	2	-3.44782e-05	2.95214e-06
2	0	0	1	1	14.5279	-0.230645	-0.230289	-0.0129854	2	-3.47419e-05	2.9904e-06
2	0	0	1	1	14.5479	-0.232644	-0.232293	-0.012966	2	-3.50063e-05	3.01192e-06
2	0	0	1	1	14.5679	-0.234644	-0.234289	-0.0129606	2	-3.52709e-05	3.03651e-06
2	0	0	1	1	14.5879	-0.236643	-0.236291	-0.012919	2	-3.55356e-05	3.05265e-06
2	0	0	1	1	14.6079	-0.238642	-0.238278	-0.012955	2	-3.58003e-05	3.08688e-06
2	0	0	1	1	14.6279	-0.240641	-0.240281	-0.0129681	2	-3.6065e-05	3.11598e-06
2	0	0	1	1	14.6479	-0.24264	-0.242302	-0.0129835	2	-3.63296e-05	3.14593e-06
2	0	0	1	1	14.6679	-0.244639	-0.244273	-0.0129369	2	-3.65939e-05	3.16013e-06
2	0	0	1	1	14.6879	-0.246639	-0.246295	-0.0129459	2	-3.68578e-05	3.18851e-06
2	0	0	1	1	14.7079	-0.248638	-0.248277	-0.0128759	2	-3.71212e-05	3.19678e-06
2	0	0	1	1	14.7279	-0.250637	-0.250275	-0.0128881	2	-3.7384e-05	3.22556e-06
2	0	0	1	1	14.7479	-0.252636	-0.252297	-0.0128495	2	-3.76464e-05	3.24188e-06
2	0	0	1	1	14.7679	-0.254635	-0.254287	-0.0128399	2	-3.79081e-05	3.26502e-06
2	0	0	1	1	14.7879	-0.256634	-0.256301	-0.0127893	2	-3.81692e-05	3.27792e-06
2	0	0	1	1	14.8079	-0.258634	-0.258285	-0.0127272	2	-3.84296e-05	3.28724e-06
2	0	0	1	1	14.8279	-0.260633	-0.260276	-0.0127122	2	-3.86892e-05	3.30868e-06
2	0	0	1	1	14.8479	-0.262632	-0.262287	-0.0126534	2	-3.8948e-05	3.31882e-06
2	0	0	1	1	14.8679	-0.264631	-0.264272	-0.012604	2	-3.92062e-05	3.33089e-06
2	0	0	1	1	14.8879	-0.26663	-0.26627	-0.0126057	2	-3.94636e-05	3.35652e-06
2	0	0	1	1	14.9079	-0.26863	-0.268288	-0.0125562	2	-3.97205e-05	3.36869e-06
2	0	0	0	1	14.9277	-0.270629	-0.270284	-0.0125424	2	-3.99743e-05	3.39001e-06
2	0	0	0	1	14.9477	-0.272628	-0.272277	-0.0124769	2	-4.02297e-05	3.39717e-06
2	0	0	0	1	14.9677	-0.274627	-0.274289	-0.0124447	2	-4.04842e-05	3.41345e-06
2	0	0	0	1	14.9877	-0.276626	-0.276274	-0.0124472	2	-4.0738e-05	3.43883e-06
2	0	0	0	1	15.0077	-0.278625	-0.278264	-0.0123691	2	-4.0991e-05	3.44189e-06
2	0	0	0	1	15.0277	-0.280625	-0.280272	-0.0123108	2	-4.12433e-05	3.45037e-06
2	0	0	0	1	15.0477	-0.282624	-0.282271	-0.0123209	2	-4.14949e-05	3.47784e-06
2	0	0	0	1	15.0677	-0.284623	-0.284261	-0.0122891	2	-4.17458e-05	3.49332e-06
2	0	0	0	1	15.0877	-0.286622	-0.286248	-0.0122175	2	-4.19962e-05	3.49723e-06
2	0	0	0	1	15.1077	-0.288621	-0.288248	-0.0122072	2	-4.22459e-05	3.51871e-06
2	0	0	0	1	15.1277	-0.290621	-0.290268	-0.0121965	2	-4.2495e-05	3.54026e-06
2	0	0	0	1	15.1477	-0.29262	-0.292258	-0.0121134	2	-4.27435e-05	3.54024e-06
2	0	0	0	1	15.1677	-0.294619	-0.294273	-0.012128	2	-4.29916e-05	3.56893e-06
2	0	0	0	1	15.1877	-0.296618	-0.296247	-0.012146	2	-4.32391e-05	3.59822e-06
2	0	0	0	1	15.2077	-0.298617	-0.298273	-0.0120954	2	-4.34862e-05	3.60772e-06
2	0	0	0	1	15.2277	-0.300616	-0.300266	-0.0120436	2	-4.37327e-05	3.61628e-06
2	0	0	0	1	15.2477	-0.302616	-0.302263	-0.0120554	2	-4.39788e-05	3.64389e-06
2	0	0	0	1	15.2677	-0.304615	-0.304275	-0.0120331	2	-4.42246e-05	3.66137e-06
2	0	0	0	1	15.2877	-0.306614	-0.30627	-0.0119876	2	-4.44702e-05	3.67146e-06
2	0	0	0	1	15.3077	-0.308613	-0.308269	-0.011973	2	-4.47153e-05	3.6909e-06
2	0	0	0	1	15.3277	-0.310612	-0.31027	-0.0119418	2	-4.49601e-05	3.70519e-06
2	0	0	0	1	15.3477	-0.312611	-0.312258	-0.0119404	2	-4.52045e-05	3.72848e-06
2	0	0	0	1	15.3677	-0.314611	-0.314264	-0.0119396	2	-4.54487e-05	3.75219e-06
2	0	0	0	1	15.3877	-0.31661	-0.316271	-0.0119647	2	-4.56929e-05	3.78408e-06
2	0	0	0	1	15.4076	-0.318618	-0.318281	-0.0119744	2	-4.59358e-05	3.81121e-06
2	0	0	1	1	15.4275	-0.320608	-0.320269	-0.0119276	2	-4.61786e-05	3.82005e-06
2	0	0	1	1	15.4475	-0.322607	-0.322258	-0.0119456	2	-4.64224e-05	3.84957e-06
2	0	0	1	1	15.4675	-0.324607	-0.324264	-0.011916	2	-4.66662e-05	3.86393e-06
2	0	0	1	1	15.4875	-0.326606	-0.326255	-0.011912	2	-4.69098e-05	3.88635e-06
2	0	0	1	1	15.5075	-0.328605	-0.328251	-0.0119333	2	-4.71535e-05	3.91713e-06
2	0	0	1	1	15.5275	-0.330604	-0.330246	-0.0118957	2	-4.73973e-05	3.92851e-06
2	0	0	1	1	15.5475	-0.332603	-0.33226	-0.0119428	2	-4.7641e-05	3.9681e-06
2	0	0	1	1	15.5675	-0.334602	-0.334246	-0.0119361	2	-4.78849e-05	3.98959e-06
2	0	0	1	1	15.5875	-0.336602	-0.336243	-0.0119528	2	-4.8129e-05	4.01903e-06
2	0	0	1	1	15.6075	-0.338601	-0.338234	-0.0119364	2	-4.83732e-05	4.03728e-06
2	0	0	1	1	15.6275	-0.3406	-0.340246	-0.0119857	2	-4.86175e-05	4.0781e-06
2	0	0	1	1	15.6475	-0.342599	-0.342238	-0.0119616	2	-4.88622e-05	4.09371e-06
2	0	0	1	1	15.6675	-0.344598	-0.344255	-0.0120243	2	-4.91073e-05	4.13944e-06
2	0	0	1	1	15.6875	-0.346598	-0.346243	-0.0120271	2	-4.93526e-05	4.16428e-06
2	0	0	1	1	15.7075	-0.348597	-0.348264	-0.0120307	2	-4.95985e-05	4.18985e-06
2	0	0	1	1	15.7275	-0.350596	-0.350249	-0.0120465	2	-4.98444e-05	4.21926e-06
2	0	0	1	1	15.7475	-0.352595	-0.352252	-0.0120763	2	-5.00909e-05	4.25392e-06
2	0	0	1	1	15.7675	-0.354594	-0.354252	-0.0121319	2	-5.03378e-05	4.29775e-06
2	0	0	1	1	15.7875	-0.356593	-0.356248	-0.0121153	2	-5.05852e-05	4.31605e-06
2	0	0	1	1	15.8075	-0.358593	-0.358242	-0.0121278	2	-5.0833e-05	4.34469e-06
2	0	0	1	1	15.8275	-0.360592	-0.360246	-0.0122093	2	-5.10815e-05	4.39835e-06
2	0	0	1	1	15.8475	-0.362591	-0.362242	-0.0122349	2	-5.13305e-05	4.43198e-06
2	0	0	1	1	15.8675	-0.36459	-0.36423	-0.0122452	2	-5.15801e-05	4.46006e-06
2	0	0	1	1	15.8874	-0.36658	-0.36624	-0.0122567	2	-5.18291e-05	4.48889e-06
2	0	0	0	1	15.9073	-0.368589	-0.368235	-0.0123316	2	-5.20793e-05	4.54091e-06
2	0	0	0	1	15.9273	-0.370588	-0.370237	-0.0123408	2	-5.23311e-05	4.56903e-06
2	0	0	0	1	15.9473	-0.372587	-0.372238	-0.0123733	2	-5.25837e-05	4.6058e-06
2	0	0	0	1	15.9673	-0.374586	-0.374236	-0.0124232	2	-5.28372e-05	4.6492e-06
2	0	0	0	1	15.9873	-0.376585	-0.37624	-0.0124575	2	-5.30913e-05	4.68702e-06
2	0	0	0	1	16.0073	-0.378584	-0.378235	-0.0125178	2	-5.33461e-05	4.73466e-06
2	0	0	0	1	16.0273	-0.380584	-0.380238	-0.0125613	2	-5.36021e-05	4.7763e-06
2	0	0	0	1	16.0473	-0.382583	-0.382238	-0.0125933	2	-5.38588e-05	4.81364e-06
2	0	0	0	1	16.0673	-0.384582	-0.38423	-0.0126635	2	-5.41165e-05	4.86569e-06
2	0	0	0	1	16.0873	-0.386581	-0.386227	-0.0126951	2	-5.43753e-05	4.90318e-06
2	0	0	0	1	16.1073	-0.38858	-0.388234	-0.0127518	2	-5.46351e-05	4.95069e-06
2	0	0	0	1	16.1273	-0.390579	-0.390237	-0.0128091	2	-5.48958e-05	4.99856e-06
2	0	0	0	1	16.1473	-0.392579	-0.392223	-0.0128611	2	-5.51577e-05	5.04443e-06
2	0	0	0	1	16.1673	-0.394578	-0.394211	-0.0129009	2	-5.54208e-05	5.08567e-06
2	0	0	0	1	16.1873	-0.396577	-0.396236	-0.0129723	2	-5.56851e-05	5.14009e-06
2	0	0	0	1	16.2073	-0.398576	-0.398231	-0.0130567	2	-5.59505e-05	5.19958e-06
2	0	0	0	1	16.2212	-0.400026	-0.399643	-0.0134387	2	-5.61358e-05	5.37066e-06
2	1	0	0	0	16.2277	-0.399376	-0.398981	-0.0106684	2	-5.62057e-05	4.25651e-06
2	1	0	0	0	16.2477	-0.397377	-0.396972	-0.00955697	2	-5.64009e-05	3.79385e-06
2	1	0	0	0	16.2677	-0.395378	-0.394982	-0.00902894	2	-5.6581e-05	3.56627e-06
2	1	0	0	0	16.2877	-0.393378	-0.392986	-0.00858952	2	-5.67516e-05	3.37556e-06
2	1	0	0	0	16.3077	-0.391379	-0.390972	-0.00828058	2	-5.69149e-05	3.23747e-06
2	1	0	0	0	16.3277	-0.38938	-0.388966	-0.00795146	2	-5.70721e-05	3.09285e-06
2	1	0	0	0	16.3477	-0.387381	-0.386972	-0.00772255	2	-5.72237e-05	2.98841e-06
2	1	0	0	0	16.3677	-0.385382	-0.384977	-0.00746806	2	-5.73702e-05	2.87503e-06
2	1	0	0	0	16.3877	-0.383382	-0.382989	-0.00725638	2	-5.75123e-05	2.77911e-06
2	1	0	0	0	16.4077	-0.381383	-0.380995	-0.00702621	2	-5.765e-05	2.67695e-06
2	1	0	0	0	16.4277	-0.379384	-0.378972	-0.00686618	2	-5.77835e-05	2.60209e-06
2	1	0	0	0	16.4477	-0.377385	-0.376975	-0.00664172	2	-5.79133e-05	2.50376e-06
2	1	0	0	0	16.4677	-0.375386	-0.374985	-0.00647133	2	-5.80394e-05	2.42665e-06
2	1	0	0	0	16.4877	-0.373387	-0.37299	-0.00629242	2	-5.81619e-05	2.34701e-06
2	1	0	0	0	16.5077	-0.371387	-0.370998	-0.0061309	2	-5.82811e-05	2.27455e-06
2	1	0	0	0	16.5277	-0.369388	-0.368978	-0.00597667	2	-5.83969e-05	2.20526e-06
2	1	0	0	0	16.5476	-0.367396	-0.366981	-0.00582581	2	-5.85089e-05	2.13796e-06
2	1	0	1	0	16.5675	-0.36539	-0.364984	-0.00566421	2	-5.86178e-05	2.06734e-06
2	1	0	1	0	16.5875	-0.363391	-0.363	-0.00555513	2	-5.87247e-05	2.01651e-06
2	1	0	1	0	16.6075	-0.361391	-0.360999	-0.00544184	2	-5.88286e-05	1.9645e-06
2	1	0	1	0	16.6275	-0.359392	-0.358986	-0.00526679	2	-5.89297e-05	1.8907e-06
2	1	0	1	0	16.6475	-0.357393	-0.356993	-0.00513872	2	-5.90284e-05	1.83449e-06
2	1	0	0	0	16.6985	-0.352295	-0.351887	-0.00457952	2	-5.92721e-05	1.61147e-06
2	1	0	0	0	16.7185	-0.350296	-0.349876	-0.00445431	2	-5.93622e-05	1.55846e-06
2	1	0	0	0	16.7385	-0.348297	-0.347899	-0.00432739	2	-5.945e-05	1.50549e-06
2	1	0	0	0	16.7585	-0.346298	-0.345887	-0.00421143	2	-5.95352e-05	1.45668e-06
2	1	0	0	0	16.7785	-0.344298	-0.34389	-0.00408636	2	-5.96182e-05	1.40526e-06
2	1	0	0	0	16.7985	-0.342299	-0.341889	-0.00400241	2	-5.96989e-05	1.36838e-06
2	1	0	0	0	16.8185	-0.3403	-0.339866	-0.00386443	2	-5.97773e-05	1.31339e-06
2	1	0	0	0	16.8385	-0.338301	-0.33788	-0.00377972	2	-5.98537e-05	1.27709e-06
2	1	0	0	0	16.8585	-0.336302	-0.335875	-0.00368131	2	-5.9928e-05	1.23646e-06
2	1	0	0	0	16.8785	-0.334303	-0.333882	-0.00355971	2	-6.00002e-05	1.18852e-06
2	1	0	0	0	16.8985	-0.332303	-0.331892	-0.00347801	2	-6.00704e-05	1.15432e-06
2	1	0	0	0	16.9185	-0.330304	-0.329885	-0.00337237	2	-6.01385e-05	1.11249e-06
2	1	0	0	0	16.9385	-0.328305	-0.327881	-0.00326075	2	-6.02047e-05	1.06914e-06
2	1	0	0	0	16.9585	-0.326306	-0.325883	-0.00317457	2	-6.02689e-05	1.03454e-06
2	1	0	0	0	16.9785	-0.324307	-0.323892	-0.00306965	2	-6.03312e-05	9.94233e-07
2	1	0	0	0	16.9985	-0.322308	-0.321894	-0.00296713	2	-6.03916e-05	9.55101e-07
2	1	0	0	0	17.0185	-0.320308	-0.319903	-0.00289118	2	-6.04501e-05	9.24898e-07
2	1	0	0	0	17.0384	-0.318309	-0.317897	-0.00274874	2	-6.05064e-05	8.73818e-07
2	1	0	1	0	17.0583	-0.31631	-0.315906	-0.00269237	2	-6.05607e-05	8.50533e-07
2	1	0	1	0	17.0783	-0.314311	-0.313894	-0.00261893	2	-6.06136e-05	8.22066e-07
2	1	0	1	0	17.0983	-0.312312	-0.311901	-0.00252807	2	-6.06649e-05	7.88507e-07
2	1	0	1	0	17.1183	-0.310312	-0.309907	-0.00243596	2	-6.07144e-05	7.54922e-07
2	1	0	1	0	17.1383	-0.308313	-0.307905	-0.00234461	2	-6.07619e-05	7.21918e-07
2	1	0	1	0	17.1583	-0.306314	-0.305895	-0.00226494	2	-6.0808e-05	6.92836e-07
2	1	0	1	0	17.1783	-0.304315	-0.30391	-0.00219296	2	-6.08522e-05	6.66461e-07
2	1	0	1	0	17.1983	-0.302316	-0.301899	-0.0020939	2	-6.08947e-05	6.32145e-07
2	1	0	1	0	17.2183	-0.300317	-0.29991	-0.00201393	2	-6.09357e-05	6.03997e-07
2	1	0	1	0	17.2383	-0.298317	-0.297888	-0.00192331	2	-6.09748e-05	5.72931e-07
2	1	0	1	0	17.2583	-0.296318	-0.295901	-0.00184045	2	-6.10123e-05	5.44591e-07
2	1	0	1	0	17.2783	-0.294319	-0.293911	-0.00176041	2	-6.10481e-05	5.17405e-07
2	1	0	1	0	17.2983	-0.29232	-0.291898	-0.00166047	2	-6.10822e-05	4.84689e-07
2	1	0	1	0	17.3183	-0.290321	-0.289892	-0.00159412	2	-6.11146e-05	4.62125e-07
2	1	0	1	0	17.3383	-0.288321	-0.28789	-0.00151755	2	-6.11454e-05	4.36887e-07
2	1	0	1	0	17.3583	-0.286322	-0.28589	-0.00142533	2	-6.11746e-05	4.07488e-07
2	1	0	1	0	17.3783	-0.284323	-0.283899	-0.00134326	2	-6.1202e-05	3.8135e-07
2	1	0	1	0	17.3983	-0.282324	-0.281915	-0.00125935	2	-6.12278e-05	3.5503e-07
2	1	0	1	0	17.4183	-0.280325	-0.279901	-0.00118928	2	-6.12518e-05	3.3288e-07
2	1	0	1	0	17.4383	-0.278326	-0.27792	-0.00107809	2	-6.12742e-05	2.99623e-07
2	1	0	1	0	17.4583	-0.276326	-0.275913	-0.00100179	2	-6.12947e-05	2.76407e-07
2	1	0	1	0	17.4783	-0.274327	-0.273903	-0.000916529	2	-6.13135e-05	2.5104e-07
2	1	0	1	0	17.4983	-0.272328	-0.271913	-0.000803725	2	-6.13307e-05	2.18543e-07
2	1	0	1	0	17.5183	-0.270329	-0.269916	-0.000715213	2	-6.13458e-05	1.93048e-07
2	1	0	0	0	17.5381	-0.26833	-0.267926	-0.000617074	2	-6.13587e-05	1.6533e-07
2	1	0	0	0	17.5581	-0.26633	-0.26591	-0.000537974	2	-6.137e-05	1.43053e-07
2	1	0	0	0	17.5781	-0.264331	-0.263915	-0.000427003	2	-6.13794e-05	1.12692e-07
2	1	0	0	0	17.5981	-0.262332	-0.261913	-0.000325886	2	-6.13868e-05	8.53539e-08
2	1	0	0	0	17.6181	-0.260333	-0.259915	-0.00022016	2	-6.13923e-05	5.7223e-08
2	1	0	0	0	17.6381	-0.258334	-0.257907	-0.000132109	2	-6.13957e-05	3.40718e-08
2	1	0	0	0	17.6581	-0.256335	-0.255923	-2.1867e-05	2	-6.13968e-05	5.59628e-09
2	1	0	0	0	17.6781	-0.254335	-0.253902	0.000118133	2	-6.13956e-05	2.99941e-08
2	1	0	0	0	17.6981	-0.252336	-0.251919	0.000229183	2	-6.1392e-05	5.77355e-08
2	1	0	0	0	17.7181	-0.250337	-0.249918	0.0003516	2	-6.1386e-05	8.78712e-08
2	1	0	0	0	17.7381	-0.248338	-0.247918	0.00047065	2	-6.13775e-05	1.16683e-07
2	1	0	0	0	17.7581	-0.246339	-0.245924	0.000613063	2	-6.13664e-05	1.50767e-07
2	1	0	0	0	17.7781	-0.24434	-0.243906	0.000765837	2	-6.13525e-05	1.86792e-07
2	1	0	0	0	17.7981	-0.24234	-0.241912	0.000904929	2	-6.13356e-05	2.18913e-07
2	1	0	0	0	17.8181	-0.240341	-0.239901	0.00105396	2	-6.13156e-05	2.52846e-07
2	1	0	0	0	17.8381	-0.238342	-0.237914	0.00123463	2	-6.12925e-05	2.93734e-07
2	1	0	0	0	17.8581	-0.236343	-0.235901	0.00139657	2	-6.1266e-05	3.29451e-07
2	1	0	0	0	17.8781	-0.234344	-0.233922	0.00157092	2	-6.12362e-05	3.67473e-07
2	1	0	0	0	17.8981	-0.232344	-0.231919	0.00177096	2	-6.12024e-05	4.1072e-07
2	1	0	0	0	17.9181	-0.230345	-0.229918	0.00198147	2	-6.11647e-05	4.55575e-07
2	1	0	0	0	17.9381	-0.228346	-0.227938	0.00217937	2	-6.11231e-05	4.9676e-07
2	1	0	0	0	17.9581	-0.226347	-0.225938	0.00238751	2	-6.10769e-05	5.39429e-07
2	1	0	0	0	17.9781	-0.224348	-0.223929	0.00263164	2	-6.10262e-05	5.89301e-07
2	1	0	0	0	17.9981	-0.222349	-0.221928	0.0028867	2	-6.09706e-05	6.40639e-07
2	1	0	1	0	18.0179	-0.220349	-0.219933	0.00317844	2	-6.09105e-05	6.99042e-07
2	1	0	1	0	18.0379	-0.21835	-0.217913	0.00343227	2	-6.08443e-05	7.47935e-07
2	1	0	1	0	18.0579	-0.216351	-0.215929	0.00372704	2	-6.07727e-05	8.04774e-07
2	1	0	1	0	18.0779	-0.214352	-0.213925	0.0039954	2	-6.06954e-05	8.54714e-07
2	1	0	1	0	18.0979	-0.212353	-0.21192	0.00431646	2	-6.06119e-05	9.14743e-07
2	1	0	1	0	18.1179	-0.210353	-0.209935	0.00462564	2	-6.05224e-05	9.71085e-07
2	1	0	1	0	18.1379	-0.208354	-0.207933	0.00494081	2	-6.04266e-05	1.02736e-06
2	1	0	1	0	18.1579	-0.206355	-0.205928	0.00528687	2	-6.0324e-05	1.08872e-06
2	1	0	1	0	18.1779	-0.204356	-0.203923	0.00564387	2	-6.02145e-05	1.15091e-06
2	1	0	1	0	18.1979	-0.202357	-0.201921	0.00598624	2	-6.0098e-05	1.20874e-06
2	1	0	1	0	18.2179	-0.200358	-0.199921	0.0063488	2	-5.99746e-05	1.26926e-06
2	1	0	1	0	18.2379	-0.198358	-0.197918	0.00667997	2	-5.9844e-05	1.32209e-06
2	1	0	1	0	18.2579	-0.196359	-0.195916	0.00705196	2	-5.97065e-05	1.38159e-06
2	1	0	1	0	18.2779	-0.19436	-0.193916	0.00737838	2	-5.9562e-05	1.43078e-06
2	1	0	1	0	18.2979	-0.192361	-0.191909	0.00771748	2	-5.94106e-05	1.48106e-06
2	1	0	1	0	18.3179	-0.190362	-0.189879	0.00807524	2	-5.92524e-05	1.53332e-06
2	1	0	1	0	18.3379	-0.188363	-0.187906	0.00838396	2	-5.90876e-05	1.5754e-06
2	1	0	1	0	18.3579	-0.186363	-0.18589	0.00867226	2	-5.89166e-05	1.61209e-06
2	1	0	1	0	18.3779	-0.184364	-0.183896	0.00896037	2	-5.87398e-05	1.64778e-06
2	1	0	1	0	18.3979	-0.182365	-0.181899	0.00923593	2	-5.85576e-05	1.68001e-06
2	1	0	1	0	18.4179	-0.180366	-0.179883	0.00948112	2	-5.83702e-05	1.70549e-06
2	1	0	1	0	18.4379	-0.178367	-0.177897	0.00968098	2	-5.81783e-05	1.72222e-06
2	1	0	1	0	18.4579	-0.176367	-0.175906	0.0098837	2	-5.79822e-05	1.7386e-06
2	1	0	1	0	18.4779	-0.174368	-0.17389	0.0100454	2	-5.77826e-05	1.74679e-06
2	1	0	1	0	18.5133	-0.170812	-0.170344	0.0101174	2	-5.74206e-05	1.72344e-06
2	1	0	1	0	18.5487	-0.167271	-0.166836	0.0101571	2	-5.70538e-05	1.69457e-06
2	1	0	1	0	18.5687	-0.165272	-0.16484	0.0102158	2	-5.68445e-05	1.68397e-06
2	1	0	1	0	18.5887	-0.163273	-0.162805	0.0102483	2	-5.66348e-05	1.66847e-06
2	1	0	1	0	18.6087	-0.161274	-0.160802	0.0102327	2	-5.6425e-05	1.64544e-06
2	1	0	1	0	18.6287	-0.159274	-0.158822	0.0102168	2	-5.62157e-05	1.62265e-06
2	1	0	1	0	18.6487	-0.157275	-0.15683	0.0100896	2	-5.60076e-05	1.58235e-06
2	1	0	1	0	18.6687	-0.155276	-0.154821	0.0100506	2	-5.58006e-05	1.55605e-06
2	1	0	1	0	18.6887	-0.153277	-0.152824	0.00996754	2	-5.55954e-05	1.52328e-06
2	1	0	1	0	18.7087	-0.151278	-0.150818	0.00985898	2	-5.53921e-05	1.48691e-06
2	1	0	1	0	18.7287	-0.149279	-0.148838	0.00972782	2	-5.51912e-05	1.44787e-06
2	1	0	1	0	18.7487	-0.147279	-0.146821	0.00961011	2	-5.49926e-05	1.41096e-06
2	1	0	1	0	18.7687	-0.14528	-0.144813	0.00945671	2	-5.47969e-05	1.36946e-06
2	1	0	1	0	18.7887	-0.143281	-0.14284	0.00932372	2	-5.4604e-05	1.3318e-06
2	1	0	1	0	18.8087	-0.141282	-0.140824	0.00917193	2	-5.44138e-05	1.29163e-06
2	1	0	1	0	18.8287	-0.139283	-0.138822	0.00906036	2	-5.42268e-05	1.25778e-06
2	1	0	1	0	18.8487	-0.137283	-0.136823	0.00883225	2	-5.40427e-05	1.20846e-06
2	1	0	1	0	18.8687	-0.135284	-0.13482	0.00869078	2	-5.38617e-05	1.17169e-06
2	1	0	1	0	18.8887	-0.133285	-0.132823	0.00854062	2	-5.36838e-05	1.13439e-06
2	1	0	1	0	18.9087	-0.131286	-0.130823	0.00843482	2	-5.35089e-05	1.10347e-06
2	1	0	1	0	18.9287	-0.129287	-0.128825	0.00824423	2	-5.33371e-05	1.06206e-06
2	1	0	1	0	18.9487	-0.127288	-0.126831	0.00812063	2	-5.31681e-05	1.02995e-06
2	1	0	1	0	18.9687	-0.125288	-0.124829	0.00796472	2	-5.30022e-05	9.94231e-07
2	1	0	1	0	18.9886	-0.123282	-0.122835	0.00783541	2	-5.28398e-05	9.62465e-07
2	1	0	0	0	19.0085	-0.12129	-0.12084	0.00770747	2	-5.26799e-05	9.31373e-07
2	1	0	0	0	19.0285	-0.119291	-0.118831	0.00757747	2	-5.25221e-05	9.0044e-07
2	1	0	0	0	19.0485	-0.117292	-0.11685	0.00741638	2	-5.23669e-05	8.66607e-07
2	1	0	0	0	19.0685	-0.115293	-0.114842	0.0072988	2	-5.22141e-05	8.38205e-07
2	1	0	0	0	19.0885	-0.113293	-0.112843	0.00720552	2	-5.20637e-05	8.13092e-07
2	1	0	0	0	19.1085	-0.111294	-0.110843	0.00707734	2	-5.19157e-05	7.84473e-07
2	1	0	0	0	19.1285	-0.109295	-0.108853	0.00695727	2	-5.177e-05	7.57322e-07
2	1	0	0	0	19.1485	-0.107296	-0.106861	0.00682967	2	-5.16264e-05	7.29824e-07
2	1	0	0	0	19.1685	-0.105297	-0.10484	0.00676772	2	-5.14849e-05	7.09528e-07
2	1	0	0	0	19.1885	-0.103297	-0.102849	0.00663808	2	-5.13452e-05	6.82718e-07
2	1	0	0	0	19.2085	-0.101298	-0.100846	0.00657704	2	-5.12075e-05	6.63269e-07
2	1	0	0	0	19.2285	-0.0992991	-0.0988416	0.00648116	2	-5.10714e-05	6.40608e-07
2	1	0	0	0	19.2485	-0.0972999	-0.0968381	0.00642971	2	-5.09372e-05	6.22641e-07
2	1	0	0	0	19.2685	-0.0953007	-0.0948356	0.00632209	2	-5.08045e-05	5.9956e-07
2	1	0	0	0	19.2885	-0.0933015	-0.0928541	0.00626494	2	-5.06736e-05	5.81725e-07
2	1	0	0	0	19.3085	-0.0913024	-0.0908443	0.00621019	2	-5.05441e-05	5.6416e-07
2	1	0	0	0	19.3285	-0.0893032	-0.0888418	0.00616655	2	-5.0416e-05	5.47847e-07
2	1	0	0	0	19.3485	-0.087304	-0.0868364	0.00601992	2	-5.02893e-05	5.22748e-07
2	1	0	0	0	19.3685	-0.0853048	-0.0848488	0.00596503	2	-5.01639e-05	5.06125e-07
2	1	0	0	0	19.3885	-0.0833056	-0.0828334	0.00590108	2	-5.00397e-05	4.88807e-07
2	1	0	0	0	19.4085	-0.0813065	-0.0808297	0.00585441	2	-4.99168e-05	4.7321e-07
2	1	0	0	0	19.4285	-0.0793073	-0.0788564	0.00580042	2	-4.97952e-05	4.57401e-07
2	1	0	0	0	19.4485	-0.0773081	-0.0768445	0.00577302	2	-4.96744e-05	4.43624e-07
2	1	0	0	0	19.4685	-0.0753089	-0.0748587	0.00568134	2	-4.95549e-05	4.25298e-07
2	1	0	1	0	19.4883	-0.0733097	-0.0728474	0.00565067	2	-4.94371e-05	4.11637e-07
2	1	0	1	0	19.5083	-0.0713106	-0.0708528	0.00561396	2	-4.93193e-05	3.97765e-07
2	1	0	1	0	19.5283	-0.0693114	-0.068863	0.0055733	2	-4.92025e-05	3.83794e-07
2	1	0	1	0	19.5483	-0.0673122	-0.066861	0.00549797	2	-4.90866e-05	3.676e-07
2	1	0	1	0	19.5683	-0.065313	-0.0648395	0.00543835	2	-4.89716e-05	3.5262e-07
2	1	0	1	0	19.5883	-0.0633139	-0.0628705	0.00541234	2	-4.88573e-05	3.40277e-07
2	1	0	1	0	19.6083	-0.0613147	-0.060853	0.00539602	2	-4.87435e-05	3.28364e-07
2	1	0	1	0	19.6283	-0.0593155	-0.0588558	0.005408	2	-4.86307e-05	3.18292e-07
2	1	0	1	0	19.6483	-0.0573163	-0.0568593	0.00530656	2	-4.85185e-05	3.01728e-07
2	1	0	1	0	19.6683	-0.0553171	-0.0548524	0.00528876	2	-4.84071e-05	2.90101e-07
2	1	0	1	0	19.6883	-0.053318	-0.0528561	0.00526466	2	-4.82962e-05	2.7827e-07
2	1	0	1	0	19.7083	-0.0513188	-0.0508706	0.0052276	2	-4.81859e-05	2.65931e-07
2	1	0	1	0	19.7283	-0.0493196	-0.0488586	0.00519047	2	-4.80763e-05	2.53599e-07
2	1	0	1	0	19.7483	-0.0473204	-0.0468737	0.00519734	2	-4.79671e-05	2.43619e-07
2	1	0	1	0	19.7683	-0.0453212	-0.0448454	0.00518118	2	-4.78583e-05	2.32352e-07
2	1	0	1	0	19.7883	-0.0433221	-0.0428659	0.00517138	2	-4.77502e-05	2.21676e-07
2	1	0	1	0	19.8083	-0.0413229	-0.0408725	0.00510203	2	-4.76426e-05	2.08533e-07
2	1	0	1	0	19.8283	-0.0393237	-0.0388544	0.0050993	2	-4.75353e-05	1.9813e-07
2	1	0	1	0	19.8483	-0.0373245	-0.0368911	0.00508188	2	-4.74285e-05	1.87476e-07
2	1	0	1	0	19.8683	-0.0353253	-0.0348637	0.00504089	2	-4.73219e-05	1.75744e-07
2	1	0	1	0	19.8883	-0.0333262	-0.0328619	0.00504498	2	-4.72158e-05	1.65787e-07
2	1	0	1	0	19.9083	-0.031327	-0.0308581	0.00502209	2	-4.71102e-05	1.54972e-07
2	1	0	1	0	19.9283	-0.0293278	-0.0288635	0.0050005	2	-4.70048e-05	1.44332e-07
2	1	0	1	0	19.9483	-0.0273286	-0.0268611	0.00494938	2	-4.68998e-05	1.32946e-07
2	1	0	0	0	19.9636	-0.0257793	-0.0253012	0.00493031	2	-4.68193e-05	1.24743e-07