File: TAP_Report/Data/MB_Suscept/6_pk_anti_2_C01_2.mpt
EC-Lab ASCII FILE
Nb header lines : 56

Cyclic Voltammetry

Run on channel : 1 (SN 0696)
User :
Electrode connection : standard
Ewe ctrl range : min = -2.50 V, max = 2.50 V
Ewe,I filtering : 50 kHz
Safety Limits :
	Do not start on E overload
Channel : Floating
Acquisition started on : 09/12/2016 16:23:20
Saved on :
	File : 6_pk_anti_2_C01.mpr
	Directory : \\userfs\st659\w2k\EC-Lab\Data\Meth_Blue 12-09-16\
	Host : 144.32.136.43
Device : SP-300 (SN 0182)
Address : USB
EC-Lab for windows v10.44 (software)
Internet server v10.44 (firmware)
Command interpretor v10.44 (firmware)
Electrode material :
Initial state :
Electrolyte :
Comments :
Cable : standard
Reference electrode : SCE Saturated Calomel Electrode (0.241 V)
Electrode surface area : 0.001 cm²
Characteristic mass : 0.001 g
Equivalent Weight : 0.000 g/eq.
Density : 0.000 g/cm3
Ei (V)              0.000
vs.                 Eoc
dE/dt               100.000
dE/dt unit          mV/s
E1 (V)              0.100
vs.                 Ref
Step percent        50
N                   10
E range min (V)     -2.500
E range max (V)     2.500
I Range             Auto
I Range min         Unset
I Range max         Unset
I Range init        Unset
Bandwidth           8
E2 (V)              -0.400
vs.                 Ref
nc cycles           2
Reverse Scan        1
Ef (V)              0.000
vs.                 Eoc

mode	ox/red	error	control changes	counter inc.	time/s	control/V	Ewe/V	<I>/mA	cycle number	(Q-Qo)/C	P/W
2	1	0	1	1	9.9658	-0.00516757	-0.00473901	0.00459468	2	-3.28611e-05	2.17743e-08
2	1	0	0	1	9.9813	-0.00361821	-0.00319017	0.0046415	2	-3.2785e-05	1.48072e-08
2	1	0	0	1	10.0013	-0.00161903	-0.00120297	0.00461956	2	-3.26869e-05	5.5572e-09
2	1	0	0	1	10.0213	0.000380148	0.000793548	0.00464352	2	-3.25888e-05	3.68486e-09
2	1	0	0	1	10.0413	0.00237933	0.00281699	0.00458775	2	-3.24907e-05	1.29236e-08
2	1	0	0	1	10.0613	0.0043785	0.00481542	0.00463733	2	-3.23926e-05	2.23306e-08
2	1	0	0	1	10.0813	0.00637768	0.00683992	0.00462056	2	-3.22948e-05	3.16043e-08
2	1	0	0	1	10.1013	0.00837686	0.00880867	0.00463102	2	-3.2197e-05	4.07931e-08
2	1	0	0	1	10.1213	0.010376	0.0108183	0.00464323	2	-3.20991e-05	5.0232e-08
2	1	0	0	1	10.1413	0.0123752	0.0128288	0.00462255	2	-3.20013e-05	5.93019e-08
2	1	0	0	1	10.1613	0.0143744	0.0148118	0.0046699	2	-3.19034e-05	6.91696e-08
2	1	0	0	1	10.1813	0.0163736	0.0168265	0.00459422	2	-3.18055e-05	7.73048e-08
2	1	0	0	1	10.2013	0.0183727	0.0188364	0.00465562	2	-3.17076e-05	8.76952e-08
2	1	0	0	1	10.2213	0.0203719	0.0208073	0.0046278	2	-3.16098e-05	9.6292e-08
2	1	0	0	1	10.2413	0.0223711	0.0227983	0.00461682	2	-3.15119e-05	1.05256e-07
2	1	0	0	1	10.2613	0.0243703	0.0248203	0.0046546	2	-3.14139e-05	1.15528e-07
2	1	0	0	1	10.2813	0.0263695	0.0268045	0.00462034	2	-3.13159e-05	1.23846e-07
2	1	0	0	1	10.3013	0.0283686	0.0288194	0.00465383	2	-3.12178e-05	1.34121e-07
2	1	0	0	1	10.3213	0.0303678	0.0308177	0.00467449	2	-3.11196e-05	1.44057e-07
2	1	0	0	1	10.3413	0.032367	0.0328233	0.00462976	2	-3.10214e-05	1.51964e-07
2	1	0	0	1	10.3613	0.0343662	0.0348056	0.00462882	2	-3.09231e-05	1.61109e-07
2	1	0	0	1	10.3813	0.0363653	0.0367994	0.00463602	2	-3.08246e-05	1.70603e-07
2	1	0	0	1	10.4013	0.0383645	0.0387978	0.00466279	2	-3.0726e-05	1.80906e-07
2	1	0	0	1	10.4213	0.0403637	0.0408089	0.00469909	2	-3.06271e-05	1.91765e-07
2	1	0	0	1	10.4413	0.0423629	0.0428014	0.0046768	2	-3.05283e-05	2.00174e-07
2	1	0	1	1	10.4611	0.0443621	0.0448122	0.00468291	2	-3.04299e-05	2.09851e-07
2	1	0	1	1	10.4811	0.0463612	0.0468106	0.00467147	2	-3.03307e-05	2.18674e-07
2	1	0	1	1	10.5011	0.0483604	0.0488084	0.00471707	2	-3.02314e-05	2.30233e-07
2	1	0	1	1	10.5211	0.0503596	0.0508	0.0046998	2	-3.01319e-05	2.3875e-07
2	1	0	1	1	10.5411	0.0523588	0.0527904	0.00474156	2	-3.00322e-05	2.50309e-07
2	1	0	1	1	10.5611	0.0543579	0.054803	0.00472117	2	-2.99322e-05	2.58734e-07
2	1	0	1	1	10.5811	0.0563571	0.0568082	0.00475273	2	-2.98321e-05	2.69994e-07
2	1	0	1	1	10.6011	0.0583563	0.0588041	0.00474749	2	-2.97318e-05	2.79172e-07
2	1	0	1	1	10.6211	0.0603555	0.0607943	0.00476145	2	-2.96312e-05	2.89469e-07
2	1	0	1	1	10.6411	0.0623547	0.0627876	0.00478124	2	-2.95305e-05	3.00203e-07
2	1	0	1	1	10.6611	0.0643538	0.0647907	0.00475368	2	-2.94294e-05	3.07995e-07
2	1	0	1	1	10.6811	0.066353	0.0668046	0.00480256	2	-2.93281e-05	3.20833e-07
2	1	0	1	1	10.7011	0.0683522	0.0688098	0.00482233	2	-2.92265e-05	3.31823e-07
2	1	0	1	1	10.7211	0.0703514	0.0708021	0.00481095	2	-2.91245e-05	3.40625e-07
2	1	0	1	1	10.7411	0.0723505	0.0727961	0.00483066	2	-2.90225e-05	3.51653e-07
2	1	0	1	1	10.7611	0.0743497	0.0747848	0.00487513	2	-2.89201e-05	3.64585e-07
2	1	0	1	1	10.7811	0.0763489	0.0767792	0.00486954	2	-2.88173e-05	3.7388e-07
2	1	0	1	1	10.8011	0.0783481	0.0787674	0.00486886	2	-2.87143e-05	3.83507e-07
2	1	0	1	1	10.8211	0.0803472	0.0807853	0.00492272	2	-2.86108e-05	3.97683e-07
2	1	0	1	1	10.8411	0.0823464	0.0827963	0.0048965	2	-2.8507e-05	4.05412e-07
2	1	0	1	1	10.8611	0.0843456	0.0847814	0.00493194	2	-2.84028e-05	4.18136e-07
2	1	0	1	1	10.8811	0.0863448	0.0867707	0.00495767	2	-2.82984e-05	4.3018e-07
2	1	0	1	1	10.9011	0.088344	0.0887808	0.00497958	2	-2.81934e-05	4.42091e-07
2	1	0	1	1	10.9211	0.0903431	0.0907855	0.00502005	2	-2.80881e-05	4.55748e-07
2	1	0	0	1	10.9409	0.0923423	0.0927948	0.00502471	2	-2.79832e-05	4.66267e-07
2	1	0	0	1	10.9609	0.0943415	0.0947845	0.0050511	2	-2.78769e-05	4.78766e-07
2	1	0	0	1	10.9809	0.0963407	0.0967783	0.0050518	2	-2.77702e-05	4.88905e-07
2	1	0	0	1	11.0009	0.0983398	0.0987833	0.00509	2	-2.7663e-05	5.02807e-07
2	1	0	0	1	11.0164	0.0998892	0.10033	0.00519482	2	-2.75797e-05	5.21195e-07
2	0	0	0	1	11.0235	0.0994394	0.0998323	0.00313226	2	-2.75553e-05	3.12701e-07
2	0	0	0	1	11.0435	0.0974402	0.097833	0.00220398	2	-2.75083e-05	2.15623e-07
2	0	0	0	1	11.0785	0.0939416	0.0943219	0.0014092	2	-2.74472e-05	1.32918e-07
2	0	0	1	1	11.1133	0.0904431	0.0908193	0.000870324	2	-2.73998e-05	7.90422e-08
2	0	0	1	1	11.1333	0.0884439	0.0888113	0.000698153	2	-2.73842e-05	6.20039e-08
2	0	0	1	1	11.1533	0.0864447	0.0868292	0.000531906	2	-2.73721e-05	4.6185e-08
2	0	0	1	1	11.1733	0.0844456	0.0848121	0.000412656	2	-2.73629e-05	3.49982e-08
2	0	0	1	1	11.1933	0.0824464	0.0828171	0.000280427	2	-2.73563e-05	2.32241e-08
2	0	0	1	1	11.2133	0.0804472	0.0808256	0.000158406	2	-2.73521e-05	1.28033e-08
2	0	0	1	1	11.2333	0.078448	0.0788145	4.3485e-05	2	-2.73501e-05	3.42725e-09
2	0	0	1	1	11.2533	0.0764488	0.0768135	-4.14627e-05	2	-2.73502e-05	3.1849e-09
2	0	0	1	1	11.2733	0.0744497	0.0748231	-0.000133951	2	-2.73521e-05	1.00227e-08
2	0	0	1	1	11.2933	0.0724505	0.0728349	-0.000197735	2	-2.73557e-05	1.4402e-08
2	0	0	1	1	11.3133	0.0704513	0.0708358	-0.000295836	2	-2.73608e-05	2.09558e-08
2	0	0	1	1	11.3333	0.0684522	0.0688437	-0.000374645	2	-2.73675e-05	2.5792e-08
2	0	0	1	1	11.3533	0.066453	0.066822	-0.000431173	2	-2.73758e-05	2.88119e-08
2	0	0	1	1	11.3733	0.0644538	0.0648274	-0.000496768	2	-2.73852e-05	3.22042e-08
2	0	0	1	1	11.3933	0.0624546	0.0628319	-0.00056953	2	-2.7396e-05	3.57846e-08
2	0	0	1	1	11.4133	0.0604554	0.0608218	-0.000609437	2	-2.74081e-05	3.70671e-08
2	0	0	1	1	11.4333	0.0584563	0.05883	-0.000662953	2	-2.74211e-05	3.90015e-08
2	0	0	1	1	11.4533	0.0564571	0.0568199	-0.000720829	2	-2.74353e-05	4.09574e-08
2	0	0	1	1	11.4733	0.0544579	0.0548314	-0.00076491	2	-2.74506e-05	4.19411e-08
2	0	0	1	1	11.4933	0.0524587	0.0528349	-0.000829545	2	-2.74667e-05	4.38289e-08
2	0	0	1	1	11.5133	0.0504595	0.0508325	-0.000864365	2	-2.74838e-05	4.39378e-08
2	0	0	1	1	11.5333	0.0484604	0.0488296	-0.000910647	2	-2.75019e-05	4.44665e-08
2	0	0	1	1	11.5533	0.0464612	0.0468318	-0.000972558	2	-2.75207e-05	4.55466e-08
2	0	0	1	1	11.5733	0.044462	0.0448143	-0.00100115	2	-2.75405e-05	4.48657e-08
2	0	0	0	1	11.5931	0.0424628	0.0428279	-0.0010484	2	-2.75612e-05	4.49008e-08
2	0	0	0	1	11.6131	0.0404637	0.0408242	-0.00108811	2	-2.75826e-05	4.44213e-08
2	0	0	0	1	11.6331	0.0384645	0.0388292	-0.00111814	2	-2.76047e-05	4.34165e-08
2	0	0	0	1	11.6531	0.0364653	0.0368238	-0.00116347	2	-2.76276e-05	4.28434e-08
2	0	0	0	1	11.6731	0.0344661	0.0348211	-0.00116884	2	-2.76512e-05	4.07003e-08
2	0	0	0	1	11.6931	0.0324669	0.0328273	-0.00121562	2	-2.76753e-05	3.99055e-08
2	0	0	0	1	11.7131	0.0304678	0.0308299	-0.00126008	2	-2.77001e-05	3.88483e-08
2	0	0	0	1	11.7331	0.0284686	0.0288277	-0.0012788	2	-2.77257e-05	3.68648e-08
2	0	0	0	1	11.7531	0.0264694	0.0268238	-0.00129843	2	-2.77518e-05	3.48287e-08
2	0	0	0	1	11.7731	0.0244702	0.0248588	-0.00135372	2	-2.77785e-05	3.3652e-08
2	0	0	0	1	11.7931	0.0224711	0.0228331	-0.00138136	2	-2.78059e-05	3.15406e-08
2	0	0	0	1	11.8131	0.0204719	0.0208535	-0.00139678	2	-2.78337e-05	2.91278e-08
2	0	0	0	1	11.8331	0.0184727	0.0188457	-0.00143119	2	-2.78621e-05	2.69718e-08
2	0	0	0	1	11.8531	0.0164735	0.0168513	-0.00145303	2	-2.78911e-05	2.44856e-08
2	0	0	0	1	11.8731	0.0144744	0.0148512	-0.00150203	2	-2.79207e-05	2.2307e-08
2	0	0	0	1	11.8931	0.0124752	0.0128314	-0.00151003	2	-2.79509e-05	1.93757e-08
2	0	0	0	1	11.9131	0.010476	0.0108412	-0.0015393	2	-2.79815e-05	1.66879e-08
2	0	0	0	1	11.9331	0.00847682	0.00884343	-0.00154755	2	-2.80126e-05	1.36856e-08
2	0	0	0	1	11.9531	0.00647764	0.00684479	-0.00157971	2	-2.80442e-05	1.08128e-08
2	0	0	0	1	11.9731	0.00447846	0.00484255	-0.00159754	2	-2.80763e-05	7.73618e-09
2	0	0	0	1	11.9931	0.00247928	0.00285641	-0.0016302	2	-2.81089e-05	4.65654e-09
2	0	0	0	1	12.0131	0.000476741	0.000816652	-0.00164987	2	-2.81421e-05	1.34737e-09
2	0	0	0	1	12.0331	-0.00151907	-0.00116927	-0.00168877	2	-2.81756e-05	1.97463e-09
2	0	0	0	1	12.0531	-0.00351825	-0.0031624	-0.00169404	2	-2.82096e-05	5.35722e-09
2	0	0	0	1	12.073	-0.00551743	-0.00515164	-0.00174436	2	-2.82441e-05	8.9863e-09
2	0	0	1	1	12.0929	-0.00751661	-0.00715756	-0.00175264	2	-2.82788e-05	1.25447e-08
2	0	0	1	1	12.1129	-0.00951578	-0.00914688	-0.00178644	2	-2.83142e-05	1.63403e-08
2	0	0	1	1	12.1329	-0.011515	-0.0111546	-0.00180198	2	-2.835e-05	2.01004e-08
2	0	0	1	1	12.1529	-0.0135141	-0.0131478	-0.00181242	2	-2.83863e-05	2.38292e-08
2	0	0	1	1	12.1729	-0.0155133	-0.0151456	-0.00183768	2	-2.8423e-05	2.78327e-08
2	0	0	1	1	12.1929	-0.0175125	-0.017162	-0.00185897	2	-2.84601e-05	3.19037e-08
2	0	0	1	1	12.2129	-0.0195117	-0.0191424	-0.00187237	2	-2.84974e-05	3.58417e-08
2	0	0	1	1	12.2329	-0.0215109	-0.0211466	-0.00189768	2	-2.85353e-05	4.01293e-08
2	0	0	1	1	12.2529	-0.02351	-0.0231422	-0.00191963	2	-2.85737e-05	4.44245e-08
2	0	0	1	1	12.2729	-0.0255092	-0.0251377	-0.00193521	2	-2.86124e-05	4.86468e-08
2	0	0	1	1	12.2929	-0.0275084	-0.0271385	-0.00196614	2	-2.86515e-05	5.33581e-08
2	0	0	1	1	12.3129	-0.0295076	-0.0291477	-0.00197608	2	-2.86909e-05	5.75983e-08
2	0	0	1	1	12.3329	-0.0315068	-0.0311485	-0.0019939	2	-2.87309e-05	6.21069e-08
2	0	0	1	1	12.3529	-0.0335059	-0.0331433	-0.00202034	2	-2.87712e-05	6.69607e-08
2	0	0	1	1	12.3729	-0.0355051	-0.0351474	-0.00202783	2	-2.88119e-05	7.1273e-08
2	0	0	1	1	12.3929	-0.0375043	-0.0371478	-0.00206734	2	-2.88532e-05	7.6797e-08
2	0	0	1	1	12.4129	-0.0395035	-0.0391568	-0.00207385	2	-2.88947e-05	8.12053e-08
2	0	0	1	1	12.4329	-0.0415026	-0.041169	-0.00210985	2	-2.89368e-05	8.68605e-08
2	0	0	1	1	12.4529	-0.0435018	-0.0431545	-0.00210862	2	-2.89791e-05	9.09964e-08
2	0	0	1	1	12.4729	-0.045501	-0.0451413	-0.00213716	2	-2.90218e-05	9.6474e-08
2	0	0	1	1	12.4929	-0.0475002	-0.047145	-0.00216387	2	-2.9065e-05	1.02016e-07
2	0	0	1	1	12.5129	-0.0494994	-0.0491515	-0.00218749	2	-2.91086e-05	1.07519e-07
2	0	0	1	1	12.5329	-0.0514985	-0.0511399	-0.00218609	2	-2.91526e-05	1.11797e-07
2	0	0	1	1	12.5529	-0.0534977	-0.0531299	-0.00221647	2	-2.91969e-05	1.17761e-07
2	0	0	0	1	12.5727	-0.0554969	-0.0551332	-0.00225202	2	-2.92415e-05	1.24161e-07
2	0	0	0	1	12.5927	-0.0574961	-0.0571255	-0.00225196	2	-2.92867e-05	1.28644e-07
2	0	0	0	1	12.6127	-0.0594952	-0.0591521	-0.00228439	2	-2.93323e-05	1.35126e-07
2	0	0	0	1	12.6327	-0.0614944	-0.0611196	-0.00230487	2	-2.93783e-05	1.40872e-07
2	0	0	0	1	12.6527	-0.0634936	-0.0631379	-0.00232409	2	-2.94248e-05	1.46738e-07
2	0	0	0	1	12.6727	-0.0654928	-0.0651349	-0.00234694	2	-2.94717e-05	1.52867e-07
2	0	0	0	1	12.6927	-0.067492	-0.0671422	-0.00236421	2	-2.9519e-05	1.58738e-07
2	0	0	0	1	12.7127	-0.0694911	-0.0691319	-0.00238522	2	-2.95668e-05	1.64895e-07
2	0	0	0	1	12.7327	-0.0714903	-0.0711259	-0.00240271	2	-2.96149e-05	1.70895e-07
2	0	0	0	1	12.7527	-0.0734895	-0.0731294	-0.00244119	2	-2.96636e-05	1.78523e-07
2	0	0	0	1	12.7727	-0.0754887	-0.0751236	-0.00245071	2	-2.97126e-05	1.84106e-07
2	0	0	0	1	12.7927	-0.0774878	-0.0771216	-0.00246721	2	-2.9762e-05	1.90275e-07
2	0	0	0	1	12.8127	-0.079487	-0.0791103	-0.00248383	2	-2.9812e-05	1.96497e-07
2	0	0	0	1	12.8327	-0.0814862	-0.0811121	-0.00253588	2	-2.98625e-05	2.05691e-07
2	0	0	0	1	12.8527	-0.0834854	-0.0831199	-0.00255311	2	-2.99134e-05	2.12214e-07
2	0	0	0	1	12.8727	-0.0854846	-0.08513	-0.00258135	2	-2.99649e-05	2.1975e-07
2	0	0	0	1	12.8927	-0.0874837	-0.0871157	-0.00260401	2	-3.00169e-05	2.2685e-07
2	0	0	0	1	12.9127	-0.0894829	-0.0891281	-0.00263611	2	-3.00695e-05	2.34952e-07
2	0	0	0	1	12.9327	-0.0914821	-0.0911248	-0.00266257	2	-3.01226e-05	2.42626e-07
2	0	0	0	1	12.9527	-0.0934813	-0.0931343	-0.00268069	2	-3.01762e-05	2.49664e-07
2	0	0	0	1	12.9727	-0.0954805	-0.0951136	-0.00270429	2	-3.02304e-05	2.57214e-07
2	0	0	0	1	12.9927	-0.0974796	-0.0971136	-0.0027513	2	-3.02852e-05	2.67189e-07
2	0	0	0	1	13.0127	-0.0994788	-0.09912	-0.00278143	2	-3.03407e-05	2.75696e-07
2	0	0	0	1	13.0327	-0.101478	-0.101128	-0.00282149	2	-3.03969e-05	2.8533e-07
2	0	0	1	1	13.0525	-0.103477	-0.103132	-0.00286316	2	-3.04534e-05	2.95282e-07
2	0	0	1	1	13.0725	-0.105476	-0.105122	-0.00289831	2	-3.05111e-05	3.04677e-07
2	0	0	1	1	13.0925	-0.107476	-0.107115	-0.00292834	2	-3.05693e-05	3.13669e-07
2	0	0	1	1	13.1125	-0.109475	-0.109117	-0.00296942	2	-3.06285e-05	3.24015e-07
2	0	0	1	1	13.1325	-0.111474	-0.111121	-0.00300956	2	-3.06885e-05	3.34426e-07
2	0	0	1	1	13.1525	-0.113473	-0.11313	-0.00306702	2	-3.07494e-05	3.46972e-07
2	0	0	1	1	13.1725	-0.115472	-0.115112	-0.00310722	2	-3.08113e-05	3.57677e-07
2	0	0	1	1	13.1925	-0.117471	-0.117111	-0.00317022	2	-3.08742e-05	3.71268e-07
2	0	0	1	1	13.2125	-0.119471	-0.11911	-0.00321962	2	-3.09381e-05	3.83489e-07
2	0	0	1	1	13.2325	-0.12147	-0.121117	-0.00327447	2	-3.10031e-05	3.96594e-07
2	0	0	1	1	13.2525	-0.123469	-0.123109	-0.00334555	2	-3.10694e-05	4.11869e-07
2	0	0	1	1	13.2725	-0.125468	-0.12511	-0.00340605	2	-3.11371e-05	4.2613e-07
2	0	0	1	1	13.2925	-0.127467	-0.127112	-0.00349272	2	-3.12061e-05	4.43967e-07
2	0	0	1	1	13.3125	-0.129466	-0.129114	-0.00356359	2	-3.12768e-05	4.60111e-07
2	0	0	1	1	13.3325	-0.131466	-0.131113	-0.00366109	2	-3.13491e-05	4.80018e-07
2	0	0	1	1	13.3525	-0.133465	-0.133096	-0.00373165	2	-3.14232e-05	4.96668e-07
2	0	0	1	1	13.3725	-0.135464	-0.135106	-0.00383839	2	-3.14991e-05	5.18591e-07
2	0	0	1	1	13.3925	-0.137463	-0.137099	-0.00395097	2	-3.15773e-05	5.41674e-07
2	0	0	1	1	13.4125	-0.139462	-0.139106	-0.00407532	2	-3.16576e-05	5.66901e-07
2	0	0	1	1	13.4325	-0.141462	-0.141108	-0.0041891	2	-3.17404e-05	5.91115e-07
2	0	0	1	1	13.4525	-0.143461	-0.14311	-0.00432432	2	-3.18259e-05	6.18852e-07
2	0	0	1	1	13.4725	-0.14546	-0.145114	-0.00448358	2	-3.19141e-05	6.50632e-07
2	0	0	1	1	13.4925	-0.147459	-0.147119	-0.00463612	2	-3.20052e-05	6.82061e-07
2	0	0	1	1	13.5125	-0.149458	-0.149121	-0.00479523	2	-3.20997e-05	7.15071e-07
2	0	0	1	1	13.5324	-0.151457	-0.151106	-0.00500399	2	-3.21973e-05	7.56134e-07
2	0	0	0	1	13.5523	-0.153457	-0.153105	-0.00518136	2	-3.22986e-05	7.93292e-07
2	0	0	0	1	13.5723	-0.155456	-0.15511	-0.00536512	2	-3.24043e-05	8.32182e-07
2	0	0	0	1	13.5923	-0.157455	-0.157102	-0.00557526	2	-3.25139e-05	8.75885e-07
2	0	0	0	1	13.6123	-0.159454	-0.159107	-0.00580774	2	-3.26281e-05	9.2405e-07
2	0	0	0	1	13.6323	-0.161453	-0.161083	-0.00605818	2	-3.27469e-05	9.75871e-07
2	0	0	0	1	13.6523	-0.163453	-0.163111	-0.00630977	2	-3.28708e-05	1.02919e-06
2	0	0	0	1	13.6723	-0.165452	-0.165135	-0.00658787	2	-3.29998e-05	1.08789e-06
2	0	0	0	1	13.6923	-0.167451	-0.167123	-0.0068355	2	-3.31342e-05	1.14237e-06
2	0	0	0	1	13.7123	-0.16945	-0.169135	-0.0071214	2	-3.32743e-05	1.20448e-06
2	0	0	0	1	13.7323	-0.171449	-0.171121	-0.00742182	2	-3.34199e-05	1.27003e-06
2	0	0	0	1	13.7523	-0.173448	-0.173128	-0.00771742	2	-3.35716e-05	1.3361e-06
2	0	0	0	1	13.7723	-0.175448	-0.17511	-0.0080138	2	-3.37292e-05	1.4033e-06
2	0	0	0	1	13.7923	-0.177447	-0.177145	-0.00833744	2	-3.38929e-05	1.47694e-06
2	0	0	0	1	13.8123	-0.179446	-0.179111	-0.00863895	2	-3.40628e-05	1.54733e-06
2	0	0	0	1	13.8323	-0.181445	-0.18111	-0.00894914	2	-3.4239e-05	1.62078e-06
2	0	0	0	1	13.8523	-0.183444	-0.183103	-0.00926127	2	-3.44212e-05	1.69577e-06
2	0	0	0	1	13.8723	-0.185443	-0.185105	-0.00956022	2	-3.46096e-05	1.76964e-06
2	0	0	0	1	13.8923	-0.187443	-0.187116	-0.00985438	2	-3.4804e-05	1.84391e-06
2	0	0	0	1	13.9123	-0.189442	-0.189116	-0.0101518	2	-3.50042e-05	1.91986e-06
2	0	0	1	1	13.9633	-0.19454	-0.19418	-0.0105519	2	-3.55336e-05	2.04898e-06
2	0	0	1	1	13.9833	-0.196539	-0.196185	-0.0108074	2	-3.57524e-05	2.12026e-06
2	0	0	1	1	14.0033	-0.198538	-0.198175	-0.0110312	2	-3.59761e-05	2.18611e-06
2	0	0	1	1	14.0232	-0.200546	-0.200194	-0.0112856	2	-3.62034e-05	2.25931e-06
2	0	0	0	1	14.0431	-0.202536	-0.202172	-0.0114873	2	-3.64354e-05	2.32241e-06
2	0	0	0	1	14.0631	-0.204536	-0.204192	-0.0116906	2	-3.66725e-05	2.38713e-06
2	0	0	0	1	14.0831	-0.206535	-0.206181	-0.0118877	2	-3.69132e-05	2.45102e-06
2	0	0	0	1	14.1031	-0.208534	-0.208188	-0.0120242	2	-3.71574e-05	2.50331e-06
2	0	0	0	1	14.1231	-0.210533	-0.210172	-0.0121524	2	-3.74047e-05	2.55409e-06
2	0	0	0	1	14.1431	-0.212532	-0.21217	-0.0122883	2	-3.76548e-05	2.6072e-06
2	0	0	0	1	14.1631	-0.214532	-0.214179	-0.0124235	2	-3.79076e-05	2.66086e-06
2	0	0	0	1	14.1831	-0.216531	-0.21619	-0.0125857	2	-3.81629e-05	2.7209e-06
2	0	0	0	1	14.2031	-0.21853	-0.218183	-0.0126544	2	-3.84203e-05	2.76099e-06
2	0	0	0	1	14.2231	-0.220529	-0.220194	-0.012773	2	-3.86795e-05	2.81253e-06
2	0	0	0	1	14.2431	-0.222528	-0.222177	-0.0128063	2	-3.89404e-05	2.84527e-06
2	0	0	0	1	14.2631	-0.224527	-0.22419	-0.0128994	2	-3.92027e-05	2.89191e-06
2	0	0	0	1	14.2831	-0.226527	-0.226186	-0.0129245	2	-3.94663e-05	2.92334e-06
2	0	0	0	1	14.3031	-0.228526	-0.22818	-0.0129707	2	-3.97309e-05	2.95964e-06
2	0	0	0	1	14.3231	-0.230525	-0.230172	-0.0130549	2	-3.99963e-05	3.00487e-06
2	0	0	0	1	14.3431	-0.232524	-0.232163	-0.0130492	2	-4.02625e-05	3.02955e-06
2	0	0	0	1	14.3631	-0.234523	-0.234173	-0.0131128	2	-4.05293e-05	3.07068e-06
2	0	0	0	1	14.3831	-0.236522	-0.236182	-0.0131288	2	-4.07964e-05	3.1008e-06
2	0	0	0	1	14.4031	-0.238522	-0.238169	-0.0131041	2	-4.10639e-05	3.12099e-06
2	0	0	0	1	14.4231	-0.240521	-0.240162	-0.0131051	2	-4.13317e-05	3.14734e-06
2	0	0	0	1	14.4431	-0.24252	-0.242183	-0.0131424	2	-4.15998e-05	3.18287e-06
2	0	0	0	1	14.4631	-0.244519	-0.244145	-0.0131174	2	-4.18678e-05	3.20256e-06
2	0	0	0	1	14.4831	-0.246518	-0.246165	-0.0131195	2	-4.21359e-05	3.22957e-06
2	0	0	0	1	14.503	-0.248511	-0.248169	-0.013166	2	-4.24025e-05	3.2674e-06
2	0	0	1	1	14.5229	-0.250517	-0.250146	-0.0131154	2	-4.2669e-05	3.28076e-06
2	0	0	1	1	14.5429	-0.252516	-0.252152	-0.0130701	2	-4.29366e-05	3.29564e-06
2	0	0	1	1	14.5629	-0.254515	-0.254165	-0.0130885	2	-4.32039e-05	3.32663e-06
2	0	0	1	1	14.5829	-0.256514	-0.256145	-0.0130635	2	-4.34709e-05	3.34616e-06
2	0	0	1	1	14.6029	-0.258513	-0.258142	-0.0130966	2	-4.37375e-05	3.38078e-06
2	0	0	1	1	14.6229	-0.260513	-0.260158	-0.0130494	2	-4.40037e-05	3.39492e-06
2	0	0	1	1	14.6429	-0.262512	-0.262147	-0.0130358	2	-4.42695e-05	3.4173e-06
2	0	0	1	1	14.6629	-0.264511	-0.264165	-0.0130313	2	-4.45349e-05	3.44241e-06
2	0	0	1	1	14.6829	-0.26651	-0.266158	-0.012981	2	-4.48e-05	3.455e-06
2	0	0	1	1	14.7029	-0.268509	-0.268174	-0.012972	2	-4.50647e-05	3.47875e-06
2	0	0	1	1	14.7229	-0.270509	-0.27016	-0.0129552	2	-4.5329e-05	3.49996e-06
2	0	0	1	1	14.7429	-0.272508	-0.272171	-0.0129238	2	-4.55929e-05	3.51748e-06
2	0	0	1	1	14.7629	-0.274507	-0.274155	-0.0128809	2	-4.58562e-05	3.53135e-06
2	0	0	1	1	14.7829	-0.276506	-0.27614	-0.0128828	2	-4.61191e-05	3.55746e-06
2	0	0	1	1	14.8029	-0.278505	-0.278154	-0.0128533	2	-4.63819e-05	3.57519e-06
2	0	0	1	1	14.8229	-0.280504	-0.280137	-0.0128261	2	-4.6644e-05	3.59305e-06
2	0	0	1	1	14.8429	-0.282504	-0.282141	-0.0127962	2	-4.69059e-05	3.61035e-06
2	0	0	1	1	14.8629	-0.284503	-0.284144	-0.0127937	2	-4.71675e-05	3.63526e-06
2	0	0	1	1	14.8829	-0.286502	-0.28614	-0.012794	2	-4.74288e-05	3.66089e-06
2	0	0	1	1	14.9029	-0.288501	-0.288138	-0.0127526	2	-4.76897e-05	3.67451e-06
2	0	0	1	1	14.9229	-0.2905	-0.290156	-0.0127897	2	-4.79504e-05	3.71099e-06
2	0	0	1	1	14.9429	-0.292499	-0.292138	-0.0127864	2	-4.82109e-05	3.7354e-06
2	0	0	1	1	14.9629	-0.294499	-0.294166	-0.0127345	2	-4.84714e-05	3.74606e-06
2	0	0	1	1	14.9829	-0.296498	-0.296155	-0.0127226	2	-4.87315e-05	3.76786e-06
2	0	0	0	1	15.0027	-0.298497	-0.298136	-0.0127477	2	-4.8989e-05	3.80056e-06
2	0	0	0	1	15.0227	-0.300496	-0.300145	-0.01274	2	-4.92489e-05	3.82384e-06
2	0	0	0	1	15.0427	-0.302495	-0.302154	-0.0127418	2	-4.95087e-05	3.84997e-06
2	0	0	0	1	15.0627	-0.304495	-0.304139	-0.0127126	2	-4.97685e-05	3.86641e-06
2	0	0	0	1	15.0827	-0.306494	-0.30617	-0.012765	2	-5.00283e-05	3.90827e-06
2	0	0	0	1	15.1027	-0.308493	-0.308158	-0.01276	2	-5.02881e-05	3.93208e-06
2	0	0	0	1	15.1227	-0.310492	-0.310166	-0.0127087	2	-5.05479e-05	3.9418e-06
2	0	0	0	1	15.1427	-0.312491	-0.312146	-0.0127163	2	-5.08078e-05	3.96934e-06
2	0	0	0	1	15.1627	-0.31449	-0.314135	-0.0127659	2	-5.10676e-05	4.01022e-06
2	0	0	0	1	15.1827	-0.31649	-0.316138	-0.0127614	2	-5.13279e-05	4.03435e-06
2	0	0	0	1	15.2027	-0.318489	-0.318137	-0.0127482	2	-5.15883e-05	4.05569e-06
2	0	0	0	1	15.2227	-0.320488	-0.320151	-0.0127675	2	-5.1849e-05	4.08753e-06
2	0	0	0	1	15.2427	-0.322487	-0.322146	-0.012777	2	-5.21099e-05	4.11605e-06
2	0	0	0	1	15.2627	-0.324486	-0.324145	-0.0128148	2	-5.2371e-05	4.15386e-06
2	0	0	0	1	15.2827	-0.326486	-0.32614	-0.0128389	2	-5.26325e-05	4.18727e-06
2	0	0	0	1	15.3027	-0.328485	-0.328142	-0.0128725	2	-5.28945e-05	4.22401e-06
2	0	0	0	1	15.3227	-0.330484	-0.330124	-0.0128711	2	-5.31568e-05	4.24907e-06
2	0	0	0	1	15.3427	-0.332483	-0.332136	-0.0129234	2	-5.34195e-05	4.29235e-06
2	0	0	0	1	15.3627	-0.334482	-0.334125	-0.0129435	2	-5.36829e-05	4.32476e-06
2	0	0	0	1	15.3827	-0.336481	-0.336132	-0.0129638	2	-5.39467e-05	4.35756e-06
2	0	0	0	1	15.4027	-0.338481	-0.338118	-0.0129667	2	-5.42111e-05	4.3843e-06
2	0	0	0	1	15.4227	-0.34048	-0.340113	-0.0130202	2	-5.44761e-05	4.42835e-06
2	0	0	0	1	15.4427	-0.342479	-0.342132	-0.0130662	2	-5.47419e-05	4.47038e-06
2	0	0	0	1	15.4627	-0.344478	-0.344147	-0.0131092	2	-5.50084e-05	4.51149e-06
2	0	0	0	1	15.4826	-0.346486	-0.346133	-0.013131	2	-5.52744e-05	4.54509e-06
2	0	0	1	1	15.5025	-0.348476	-0.348123	-0.0131481	2	-5.55412e-05	4.57714e-06
2	0	0	1	1	15.5225	-0.350476	-0.350116	-0.013224	2	-5.581e-05	4.62992e-06
2	0	0	1	1	15.5425	-0.352475	-0.352117	-0.0132308	2	-5.60796e-05	4.65879e-06
2	0	0	1	1	15.5625	-0.354474	-0.354133	-0.0133058	2	-5.63502e-05	4.71203e-06
2	0	0	1	1	15.5825	-0.356473	-0.356117	-0.0133206	2	-5.66217e-05	4.74369e-06
2	0	0	1	1	15.6025	-0.358472	-0.358133	-0.0134117	2	-5.68942e-05	4.80316e-06
2	0	0	1	1	15.6225	-0.360472	-0.360118	-0.013438	2	-5.71677e-05	4.83928e-06
2	0	0	1	1	15.6425	-0.362471	-0.362134	-0.0135285	2	-5.74423e-05	4.89913e-06
2	0	0	1	1	15.6625	-0.36447	-0.364124	-0.013523	2	-5.77179e-05	4.92405e-06
2	0	0	1	1	15.6825	-0.366469	-0.366129	-0.0136413	2	-5.79946e-05	4.99446e-06
2	0	0	1	1	15.7025	-0.368468	-0.368108	-0.0136606	2	-5.82726e-05	5.02856e-06
2	0	0	1	1	15.7225	-0.370467	-0.370117	-0.0137529	2	-5.8552e-05	5.09017e-06
2	0	0	1	1	15.7425	-0.372467	-0.372104	-0.0137812	2	-5.88324e-05	5.12803e-06
2	0	0	1	1	15.7625	-0.374466	-0.374126	-0.0138471	2	-5.91141e-05	5.18055e-06
2	0	0	1	1	15.7825	-0.376465	-0.376108	-0.0139652	2	-5.93972e-05	5.25245e-06
2	0	0	1	1	15.8025	-0.378464	-0.378104	-0.013991	2	-5.96816e-05	5.29005e-06
2	0	0	1	1	15.8225	-0.380463	-0.380128	-0.0140939	2	-5.99675e-05	5.35748e-06
2	0	0	1	1	15.8425	-0.382463	-0.382122	-0.0141733	2	-6.02549e-05	5.41593e-06
2	0	0	1	1	15.8625	-0.384462	-0.384108	-0.0142441	2	-6.05437e-05	5.47125e-06
2	0	0	1	1	15.8825	-0.386461	-0.386105	-0.0142839	2	-6.08341e-05	5.51508e-06
2	0	0	1	1	15.9025	-0.38846	-0.388108	-0.0143683	2	-6.11261e-05	5.57646e-06
2	0	0	1	1	15.9225	-0.390459	-0.390113	-0.0144681	2	-6.14196e-05	5.64419e-06
2	0	0	1	1	15.9425	-0.392458	-0.392115	-0.0145532	2	-6.17149e-05	5.70652e-06
2	0	0	1	1	15.9624	-0.394451	-0.394098	-0.0146401	2	-6.20104e-05	5.76963e-06
2	0	0	0	1	15.9823	-0.396457	-0.396114	-0.0147181	2	-6.2308e-05	5.83005e-06
2	0	0	0	1	16.0023	-0.398456	-0.398128	-0.0148396	2	-6.26085e-05	5.90808e-06
2	1	0	0	0	16.0184	-0.400005	-0.399661	-0.014447	2	-6.28513e-05	5.77389e-06
2	1	0	1	0	16.0339	-0.398456	-0.39807	-0.0117848	2	-6.30382e-05	4.69119e-06
2	1	0	1	0	16.0539	-0.396457	-0.396068	-0.0110779	2	-6.32609e-05	4.38761e-06
2	1	0	1	0	16.0738	-0.394448	-0.394053	-0.0105007	2	-6.34705e-05	4.13783e-06
2	1	0	0	0	16.0937	-0.392458	-0.392067	-0.0101505	2	-6.36712e-05	3.97967e-06
2	1	0	0	0	16.1137	-0.390459	-0.390067	-0.00984657	2	-6.38659e-05	3.84083e-06
2	1	0	0	0	16.1337	-0.38846	-0.38808	-0.00950951	2	-6.4054e-05	3.69045e-06
2	1	0	0	0	16.1537	-0.386461	-0.386069	-0.0092131	2	-6.42364e-05	3.55689e-06
2	1	0	0	0	16.1737	-0.384462	-0.384061	-0.00897459	2	-6.44132e-05	3.44679e-06
2	1	0	0	0	16.1937	-0.382463	-0.382077	-0.00874432	2	-6.45851e-05	3.341e-06
2	1	0	0	0	16.2137	-0.380463	-0.380056	-0.00850156	2	-6.47521e-05	3.23107e-06
2	1	0	0	0	16.2337	-0.378464	-0.378056	-0.00827273	2	-6.49145e-05	3.12756e-06
2	1	0	0	0	16.2537	-0.376465	-0.376065	-0.00804735	2	-6.50728e-05	3.02633e-06
2	1	0	0	0	16.2737	-0.374466	-0.374068	-0.0078176	2	-6.52267e-05	2.92432e-06
2	1	0	0	0	16.2937	-0.372467	-0.372071	-0.00763994	2	-6.53768e-05	2.8426e-06
2	1	0	0	0	16.3137	-0.370467	-0.370072	-0.00745114	2	-6.5523e-05	2.75746e-06
2	1	0	0	0	16.3337	-0.368468	-0.368067	-0.00727524	2	-6.56653e-05	2.67777e-06
2	1	0	0	0	16.3537	-0.366469	-0.366067	-0.0071234	2	-6.58041e-05	2.60764e-06
2	1	0	0	0	16.3737	-0.36447	-0.364066	-0.00688973	2	-6.59394e-05	2.50832e-06
2	1	0	0	0	16.3937	-0.362471	-0.36208	-0.00679525	2	-6.60713e-05	2.46042e-06
2	1	0	0	0	16.4137	-0.360472	-0.360077	-0.00661598	2	-6.62e-05	2.38226e-06
2	1	0	0	0	16.4337	-0.358472	-0.358072	-0.00642028	2	-6.63254e-05	2.29892e-06
2	1	0	0	0	16.4537	-0.356473	-0.356081	-0.00629243	2	-6.64477e-05	2.24061e-06
2	1	0	0	0	16.4737	-0.354474	-0.354102	-0.00614423	2	-6.65669e-05	2.17569e-06
2	1	0	0	0	16.4937	-0.352475	-0.352083	-0.00598645	2	-6.66831e-05	2.10772e-06
2	1	0	0	0	16.5137	-0.350476	-0.350081	-0.00582131	2	-6.67965e-05	2.03793e-06
2	1	0	0	0	16.5337	-0.348477	-0.348104	-0.0057106	2	-6.6907e-05	1.98788e-06
2	1	0	0	0	16.5536	-0.346484	-0.3461	-0.005534	2	-6.70139e-05	1.91532e-06
2	1	0	1	0	16.5735	-0.344478	-0.344089	-0.00543442	2	-6.7118e-05	1.86992e-06
2	1	0	1	0	16.5935	-0.342479	-0.342082	-0.00531067	2	-6.722e-05	1.81668e-06
2	1	0	1	0	16.6135	-0.34048	-0.340082	-0.00517386	2	-6.73195e-05	1.75954e-06
2	1	0	1	0	16.6335	-0.338481	-0.338077	-0.0050335	2	-6.74166e-05	1.70171e-06
2	1	0	1	0	16.669	-0.334932	-0.334557	-0.00473055	2	-6.75838e-05	1.58264e-06
2	1	0	0	0	16.7045	-0.331383	-0.331004	-0.00440562	2	-6.77458e-05	1.45828e-06
2	1	0	0	0	16.7245	-0.329384	-0.328979	-0.00426974	2	-6.78322e-05	1.40466e-06
2	1	0	0	0	16.7445	-0.327385	-0.326998	-0.00415137	2	-6.79162e-05	1.35749e-06
2	1	0	0	0	16.7645	-0.325386	-0.324993	-0.00404326	2	-6.79979e-05	1.31403e-06
2	1	0	0	0	16.7845	-0.323387	-0.323001	-0.00393213	2	-6.80773e-05	1.27008e-06
2	1	0	0	0	16.8045	-0.321388	-0.321004	-0.00379711	2	-6.81544e-05	1.21889e-06
2	1	0	0	0	16.8245	-0.319388	-0.319011	-0.00369727	2	-6.82293e-05	1.17947e-06
2	1	0	0	0	16.8445	-0.317389	-0.317004	-0.00358372	2	-6.83021e-05	1.13605e-06
2	1	0	0	0	16.8645	-0.31539	-0.315005	-0.00347318	2	-6.83725e-05	1.09407e-06
2	1	0	0	0	16.8845	-0.313391	-0.313017	-0.00338104	2	-6.8441e-05	1.05832e-06
2	1	0	0	0	16.9045	-0.311392	-0.311016	-0.00327699	2	-6.85073e-05	1.0192e-06
2	1	0	0	0	16.9245	-0.309393	-0.309012	-0.00315977	2	-6.85716e-05	9.76409e-07
2	1	0	0	0	16.9445	-0.307393	-0.307024	-0.0030649	2	-6.86338e-05	9.40995e-07
2	1	0	0	0	16.9645	-0.305394	-0.30502	-0.0029477	2	-6.86937e-05	8.99108e-07
2	1	0	0	0	16.9845	-0.303395	-0.303013	-0.00285585	2	-6.87517e-05	8.6536e-07
2	1	0	0	0	17.0045	-0.301396	-0.301021	-0.00276235	2	-6.88078e-05	8.31524e-07
2	1	0	0	0	17.0245	-0.299397	-0.298995	-0.00266156	2	-6.88618e-05	7.95793e-07
2	1	0	0	0	17.0444	-0.297395	-0.297002	-0.00254078	2	-6.89135e-05	7.54616e-07
2	1	0	1	0	17.0643	-0.295398	-0.295004	-0.00246185	2	-6.89631e-05	7.26255e-07
2	1	0	1	0	17.0843	-0.293399	-0.292999	-0.00236438	2	-6.90112e-05	6.9276e-07
2	1	0	1	0	17.1043	-0.2914	-0.290975	-0.00225641	2	-6.90571e-05	6.5656e-07
2	1	0	1	0	17.1243	-0.289401	-0.289003	-0.00217568	2	-6.91013e-05	6.28778e-07
2	1	0	1	0	17.1443	-0.287402	-0.286993	-0.00207367	2	-6.91435e-05	5.95129e-07
2	1	0	1	0	17.1643	-0.285402	-0.285002	-0.00198269	2	-6.91839e-05	5.65071e-07
2	1	0	1	0	17.1843	-0.283403	-0.282995	-0.00188297	2	-6.92223e-05	5.32869e-07
2	1	0	1	0	17.2043	-0.281404	-0.28101	-0.00178332	2	-6.92587e-05	5.0113e-07
2	1	0	1	0	17.2243	-0.279405	-0.279015	-0.00167922	2	-6.92932e-05	4.68528e-07
2	1	0	1	0	17.2443	-0.277406	-0.277006	-0.00158128	2	-6.93256e-05	4.38023e-07
2	1	0	1	0	17.2643	-0.275407	-0.275018	-0.00148989	2	-6.93561e-05	4.09747e-07
2	1	0	1	0	17.2843	-0.273407	-0.273	-0.00138568	2	-6.93845e-05	3.78289e-07
2	1	0	1	0	17.3043	-0.271408	-0.271017	-0.0012841	2	-6.94109e-05	3.48014e-07
2	1	0	1	0	17.3243	-0.269409	-0.269002	-0.00117135	2	-6.94353e-05	3.15095e-07
2	1	0	1	0	17.3443	-0.26741	-0.267002	-0.00106192	2	-6.94574e-05	2.83536e-07
2	1	0	1	0	17.3643	-0.265411	-0.265019	-0.000979275	2	-6.94776e-05	2.59527e-07
2	1	0	1	0	17.3843	-0.263411	-0.262996	-0.000862333	2	-6.94953e-05	2.2679e-07
2	1	0	1	0	17.4043	-0.261412	-0.260993	-0.000754681	2	-6.95111e-05	1.96967e-07
2	1	0	1	0	17.4243	-0.259413	-0.259019	-0.000625405	2	-6.95247e-05	1.61992e-07
2	1	0	1	0	17.4443	-0.257414	-0.257006	-0.000501022	2	-6.9536e-05	1.28766e-07
2	1	0	1	0	17.4643	-0.255415	-0.255017	-0.000384866	2	-6.95446e-05	9.81473e-08
2	1	0	1	0	17.4843	-0.253416	-0.253004	-0.000254608	2	-6.95509e-05	6.44167e-08
2	1	0	1	0	17.5043	-0.251416	-0.251019	-0.000139456	2	-6.95546e-05	3.50061e-08
2	1	0	1	0	17.5243	-0.249417	-0.249005	-8.2145e-06	2	-6.95556e-05	2.04545e-09
2	1	0	0	0	17.5441	-0.247418	-0.247015	0.000160846	2	-6.95538e-05	3.97313e-08
2	1	0	0	0	17.5641	-0.245419	-0.245029	0.000282757	2	-6.95491e-05	6.92837e-08
2	1	0	0	0	17.5841	-0.24342	-0.243036	0.000448463	2	-6.95416e-05	1.08993e-07
2	1	0	0	0	17.6041	-0.24142	-0.240997	0.000612694	2	-6.9531e-05	1.47657e-07
2	1	0	0	0	17.6241	-0.239421	-0.239031	0.000760824	2	-6.95171e-05	1.81861e-07
2	1	0	0	0	17.6441	-0.237422	-0.237016	0.000932915	2	-6.95e-05	2.21116e-07
2	1	0	0	0	17.6641	-0.235423	-0.235022	0.00110926	2	-6.94793e-05	2.60699e-07
2	1	0	0	0	17.6841	-0.233424	-0.233021	0.00128924	2	-6.94551e-05	3.0042e-07
2	1	0	0	0	17.7041	-0.231425	-0.23102	0.00151083	2	-6.94268e-05	3.49031e-07
2	1	0	0	0	17.7241	-0.229425	-0.229012	0.00170388	2	-6.93946e-05	3.90208e-07
2	1	0	0	0	17.7441	-0.227426	-0.227042	0.00192161	2	-6.93581e-05	4.36286e-07
2	1	0	0	0	17.7641	-0.225427	-0.225033	0.00215481	2	-6.93172e-05	4.84902e-07
2	1	0	0	0	17.7841	-0.223428	-0.223035	0.00240322	2	-6.92715e-05	5.36002e-07
2	1	0	0	0	17.8041	-0.221429	-0.221041	0.00263059	2	-6.92212e-05	5.81468e-07
2	1	0	0	0	17.8241	-0.21943	-0.219041	0.00290573	2	-6.91656e-05	6.36475e-07
2	1	0	0	0	17.8441	-0.21743	-0.217036	0.00316661	2	-6.91047e-05	6.87269e-07
2	1	0	0	0	17.8641	-0.215431	-0.215037	0.00344857	2	-6.90381e-05	7.41568e-07
2	1	0	0	0	17.8841	-0.213432	-0.213022	0.00374605	2	-6.89658e-05	7.97992e-07
2	1	0	0	0	17.9041	-0.211433	-0.211018	0.00405689	2	-6.88875e-05	8.56076e-07
2	1	0	0	0	17.9241	-0.209434	-0.209007	0.00437	2	-6.8803e-05	9.13362e-07
2	1	0	0	0	17.9441	-0.207434	-0.207031	0.00468417	2	-6.87123e-05	9.6977e-07
2	1	0	0	0	17.9641	-0.205435	-0.205028	0.00502479	2	-6.86149e-05	1.03022e-06
2	1	0	0	0	17.9841	-0.203436	-0.203016	0.00535325	2	-6.85109e-05	1.0868e-06
2	1	0	0	0	18.0041	-0.201437	-0.201011	0.00570125	2	-6.84e-05	1.14602e-06
2	1	0	1	0	18.0239	-0.199438	-0.199005	0.00606043	2	-6.82831e-05	1.20605e-06
2	1	0	1	0	18.0439	-0.197439	-0.197006	0.00638231	2	-6.81585e-05	1.25735e-06
2	1	0	1	0	18.0639	-0.195439	-0.195015	0.00672408	2	-6.80271e-05	1.3113e-06
2	1	0	1	0	18.0839	-0.19344	-0.193001	0.00708147	2	-6.78889e-05	1.36673e-06
2	1	0	1	0	18.1039	-0.191441	-0.191013	0.00739254	2	-6.7744e-05	1.41207e-06
2	1	0	1	0	18.1239	-0.189442	-0.188994	0.00770102	2	-6.75927e-05	1.45545e-06
2	1	0	1	0	18.1439	-0.187443	-0.186999	0.00802856	2	-6.74351e-05	1.50133e-06
2	1	0	1	0	18.1639	-0.185443	-0.184996	0.00830297	2	-6.72715e-05	1.53602e-06
2	1	0	1	0	18.1839	-0.183444	-0.182975	0.00858107	2	-6.71024e-05	1.57013e-06
2	1	0	1	0	18.2039	-0.181445	-0.180986	0.00881849	2	-6.69282e-05	1.59603e-06
2	1	0	1	0	18.2239	-0.179446	-0.178987	0.00905993	2	-6.6749e-05	1.62161e-06
2	1	0	1	0	18.2439	-0.177447	-0.177008	0.00925014	2	-6.65657e-05	1.63735e-06
2	1	0	1	0	18.2639	-0.175448	-0.174997	0.00944364	2	-6.63785e-05	1.65261e-06
2	1	0	1	0	18.2839	-0.173448	-0.172995	0.00959251	2	-6.61879e-05	1.65946e-06
2	1	0	1	0	18.3039	-0.171449	-0.170996	0.0097072	2	-6.59947e-05	1.65989e-06
2	1	0	1	0	18.3239	-0.16945	-0.169009	0.00980854	2	-6.57992e-05	1.65773e-06
2	1	0	1	0	18.3439	-0.167451	-0.166996	0.00987799	2	-6.5602e-05	1.64959e-06
2	1	0	1	0	18.3639	-0.165452	-0.165015	0.00993096	2	-6.54038e-05	1.63876e-06
2	1	0	1	0	18.3839	-0.163453	-0.162979	0.00994743	2	-6.52046e-05	1.62122e-06
2	1	0	1	0	18.4039	-0.161453	-0.160968	0.0099644	2	-6.50055e-05	1.60395e-06
2	1	0	1	0	18.4239	-0.159454	-0.15898	0.00991486	2	-6.48067e-05	1.57626e-06
2	1	0	1	0	18.4439	-0.157455	-0.156984	0.00987225	2	-6.46089e-05	1.54978e-06
2	1	0	1	0	18.4639	-0.155456	-0.154993	0.00980939	2	-6.4412e-05	1.52039e-06
2	1	0	1	0	18.4839	-0.153457	-0.152978	0.00971425	2	-6.42166e-05	1.48607e-06
2	1	0	1	0	18.5038	-0.151455	-0.150981	0.00967475	2	-6.40237e-05	1.4607e-06
2	1	0	0	0	18.5237	-0.149458	-0.148996	0.0095155	2	-6.38328e-05	1.41777e-06
2	1	0	0	0	18.5437	-0.147459	-0.147012	0.00938849	2	-6.36434e-05	1.38022e-06
2	1	0	0	0	18.5637	-0.14546	-0.144982	0.00927146	2	-6.34566e-05	1.34419e-06
2	1	0	0	0	18.5837	-0.143461	-0.142991	0.00914531	2	-6.32723e-05	1.30769e-06
2	1	0	0	0	18.6037	-0.141462	-0.141	0.00898894	2	-6.30908e-05	1.26744e-06
2	1	0	0	0	18.6237	-0.139462	-0.138997	0.0088696	2	-6.2912e-05	1.23285e-06
2	1	0	0	0	18.6437	-0.137463	-0.137001	0.00872384	2	-6.27361e-05	1.19517e-06
2	1	0	0	0	18.6637	-0.135464	-0.134979	0.00858036	2	-6.25628e-05	1.15817e-06
2	1	0	0	0	18.6837	-0.133465	-0.132996	0.00842271	2	-6.23927e-05	1.12019e-06
2	1	0	0	0	18.7037	-0.131466	-0.131	0.00828124	2	-6.22253e-05	1.08484e-06
2	1	0	0	0	18.7237	-0.129466	-0.129004	0.0081449	2	-6.20608e-05	1.05072e-06
2	1	0	0	0	18.7437	-0.127467	-0.126988	0.00801408	2	-6.18989e-05	1.01769e-06
2	1	0	0	0	18.7637	-0.125468	-0.125004	0.00787363	2	-6.174e-05	9.84239e-07
2	1	0	0	0	18.7837	-0.123469	-0.123018	0.00774904	2	-6.15836e-05	9.53269e-07
2	1	0	0	0	18.8037	-0.12147	-0.121003	0.00762048	2	-6.14297e-05	9.22104e-07
2	1	0	0	0	18.8237	-0.119471	-0.119019	0.00750168	2	-6.12784e-05	8.92845e-07
2	1	0	0	0	18.8437	-0.117471	-0.117018	0.00736735	2	-6.11295e-05	8.62112e-07
2	1	0	0	0	18.8637	-0.115472	-0.115016	0.00725831	2	-6.09829e-05	8.3482e-07
2	1	0	0	0	18.8837	-0.113473	-0.113027	0.00717092	2	-6.08385e-05	8.10509e-07
2	1	0	0	0	18.9037	-0.111474	-0.111013	0.00704925	2	-6.06963e-05	7.82556e-07
2	1	0	0	0	18.9237	-0.109475	-0.109015	0.0069435	2	-6.05561e-05	7.56948e-07
2	1	0	0	0	18.9437	-0.107476	-0.107011	0.00684072	2	-6.0418e-05	7.32035e-07
2	1	0	0	0	18.9637	-0.105476	-0.105013	0.0067587	2	-6.02817e-05	7.09748e-07
2	1	0	0	0	18.9837	-0.103477	-0.103007	0.00666837	2	-6.01473e-05	6.86887e-07
2	1	0	1	0	19.0035	-0.101478	-0.101008	0.00658771	2	-6.00156e-05	6.65409e-07
2	1	0	1	0	19.0235	-0.0994788	-0.0990208	0.00650124	2	-5.98845e-05	6.43758e-07
2	1	0	1	0	19.0435	-0.0974796	-0.0970029	0.00643154	2	-5.97549e-05	6.23878e-07
2	1	0	1	0	19.0635	-0.0954805	-0.0949988	0.00634962	2	-5.9627e-05	6.03206e-07
2	1	0	1	0	19.0835	-0.0934813	-0.0930145	0.00628389	2	-5.95006e-05	5.84493e-07
2	1	0	1	0	19.1035	-0.0914821	-0.0910089	0.00621775	2	-5.93755e-05	5.6587e-07
2	1	0	1	0	19.1235	-0.0894829	-0.0890014	0.00614342	2	-5.92517e-05	5.46773e-07
2	1	0	1	0	19.1435	-0.0874837	-0.0869934	0.0061016	2	-5.91291e-05	5.30799e-07
2	1	0	1	0	19.1635	-0.0854846	-0.0850257	0.00600805	2	-5.90079e-05	5.10839e-07
2	1	0	1	0	19.1835	-0.0834854	-0.0830126	0.005961	2	-5.88877e-05	4.94838e-07
2	1	0	1	0	19.2035	-0.0814862	-0.0810195	0.00591461	2	-5.87689e-05	4.79199e-07
2	1	0	1	0	19.2235	-0.079487	-0.0790277	0.00587061	2	-5.86509e-05	4.63941e-07
2	1	0	1	0	19.2435	-0.0774878	-0.0770161	0.00581422	2	-5.85339e-05	4.47789e-07
2	1	0	1	0	19.2635	-0.0754887	-0.0750395	0.00575005	2	-5.84179e-05	4.31481e-07
2	1	0	1	0	19.2835	-0.0734895	-0.073037	0.00572711	2	-5.83029e-05	4.18291e-07
2	1	0	1	0	19.3035	-0.0714903	-0.0710303	0.00568497	2	-5.81886e-05	4.03805e-07
2	1	0	1	0	19.3235	-0.0694911	-0.0690503	0.00562354	2	-5.80752e-05	3.88307e-07
2	1	0	1	0	19.3435	-0.067492	-0.0670519	0.00559801	2	-5.79627e-05	3.75357e-07
2	1	0	1	0	19.3635	-0.0654928	-0.0650372	0.00558209	2	-5.78508e-05	3.63043e-07
2	1	0	1	0	19.3835	-0.0634936	-0.0630532	0.00554778	2	-5.77395e-05	3.49805e-07
2	1	0	1	0	19.4035	-0.0614944	-0.0610348	0.00551813	2	-5.76288e-05	3.36798e-07
2	1	0	1	0	19.4235	-0.0594952	-0.0590296	0.00547062	2	-5.75188e-05	3.22928e-07
2	1	0	1	0	19.4435	-0.0574961	-0.0570354	0.00544364	2	-5.74096e-05	3.1048e-07
2	1	0	1	0	19.4635	-0.0554969	-0.0550518	0.00541273	2	-5.73009e-05	2.9798e-07
2	1	0	0	0	19.4833	-0.0534977	-0.0530241	0.00538014	2	-5.71936e-05	2.85277e-07
2	1	0	0	0	19.5033	-0.0514985	-0.0510316	0.00535977	2	-5.70858e-05	2.73518e-07
2	1	0	0	0	19.5233	-0.0494994	-0.0490449	0.00535458	2	-5.69788e-05	2.62615e-07
2	1	0	0	0	19.5433	-0.0475002	-0.0470547	0.00531909	2	-5.6872e-05	2.50288e-07
2	1	0	0	0	19.5633	-0.045501	-0.0450421	0.00529218	2	-5.67657e-05	2.38371e-07
2	1	0	0	0	19.5833	-0.0435018	-0.0430545	0.00525319	2	-5.66599e-05	2.26173e-07
2	1	0	0	0	19.6033	-0.0415026	-0.0410545	0.00526079	2	-5.65546e-05	2.15979e-07
2	1	0	0	0	19.6233	-0.0395035	-0.039047	0.00523526	2	-5.64494e-05	2.04421e-07
2	1	0	0	0	19.6433	-0.0375043	-0.0370462	0.00522268	2	-5.63448e-05	1.93481e-07
2	1	0	0	0	19.6633	-0.0355051	-0.0350684	0.00518908	2	-5.62403e-05	1.81972e-07
2	1	0	0	0	19.6833	-0.0335059	-0.0330424	0.00518952	2	-5.61363e-05	1.71474e-07
2	1	0	0	0	19.7033	-0.0315068	-0.0310558	0.00517312	2	-5.60326e-05	1.60656e-07
2	1	0	0	0	19.7233	-0.0295076	-0.0290498	0.00515958	2	-5.59292e-05	1.49884e-07
2	1	0	0	0	19.7433	-0.0275084	-0.0270687	0.00515189	2	-5.5826e-05	1.39455e-07
2	1	0	0	0	19.7633	-0.0255092	-0.0250605	0.00512985	2	-5.5723e-05	1.28557e-07
2	1	0	0	0	19.7833	-0.02351	-0.0230615	0.00512011	2	-5.56203e-05	1.18077e-07
2	1	0	0	0	19.8033	-0.0215109	-0.021065	0.00511458	2	-5.55179e-05	1.07738e-07
2	1	0	0	0	19.8233	-0.0195117	-0.0190483	0.00510328	2	-5.54155e-05	9.72087e-08
2	1	0	0	0	19.8433	-0.0175125	-0.0170592	0.00509059	2	-5.53135e-05	8.68414e-08
2	1	0	0	0	19.8633	-0.0155133	-0.0150625	0.00509015	2	-5.52116e-05	7.66702e-08
2	1	0	0	0	19.8833	-0.0135141	-0.0130625	0.00507339	2	-5.51097e-05	6.62714e-08
2	1	0	0	0	19.9033	-0.011515	-0.0110641	0.00508191	2	-5.5008e-05	5.62268e-08
2	1	0	0	0	19.9233	-0.00951579	-0.0090534	0.00505357	2	-5.49065e-05	4.5752e-08
2	1	0	0	0	19.9433	-0.00751661	-0.00707214	0.00505833	2	-5.4805e-05	3.57732e-08
2	1	0	0	0	19.9622	-0.00561739	-0.00517027	0.00509899	2	-5.47091e-05	2.63631e-08