File: TAP_Report/Data/MB_Suscept/6_pk_anti_3_C01_2.mpt
EC-Lab ASCII FILE
Nb header lines : 56

Cyclic Voltammetry

Run on channel : 1 (SN 0696)
User :
Electrode connection : standard
Ewe ctrl range : min = -2.50 V, max = 2.50 V
Ewe,I filtering : 50 kHz
Safety Limits :
	Do not start on E overload
Channel : Floating
Acquisition started on : 09/12/2016 16:25:16
Saved on :
	File : 6_pk_anti_3_C01.mpr
	Directory : \\userfs\st659\w2k\EC-Lab\Data\Meth_Blue 12-09-16\
	Host : 144.32.136.43
Device : SP-300 (SN 0182)
Address : USB
EC-Lab for windows v10.44 (software)
Internet server v10.44 (firmware)
Command interpretor v10.44 (firmware)
Electrode material :
Initial state :
Electrolyte :
Comments :
Cable : standard
Reference electrode : SCE Saturated Calomel Electrode (0.241 V)
Electrode surface area : 0.001 cm²
Characteristic mass : 0.001 g
Equivalent Weight : 0.000 g/eq.
Density : 0.000 g/cm3
Ei (V)              0.000
vs.                 Eoc
dE/dt               100.000
dE/dt unit          mV/s
E1 (V)              0.100
vs.                 Ref
Step percent        50
N                   10
E range min (V)     -2.500
E range max (V)     2.500
I Range             Auto
I Range min         Unset
I Range max         Unset
I Range init        Unset
Bandwidth           8
E2 (V)              -0.400
vs.                 Ref
nc cycles           2
Reverse Scan        1
Ef (V)              0.000
vs.                 Eoc

mode	ox/red	error	control changes	counter inc.	time/s	control/V	Ewe/V	<I>/mA	cycle number	(Q-Qo)/C	P/W
2	1	0	0	1	9.965	-0.0190608	-0.018614	0.00453538	2	-2.88486e-05	8.44216e-08
2	1	0	1	1	9.9805	-0.0175114	-0.0170701	0.00463976	2	-2.87728e-05	7.9201e-08
2	1	0	1	1	10.0005	-0.0155122	-0.0150674	0.00463283	2	-2.86752e-05	6.98047e-08
2	1	0	1	1	10.0205	-0.013513	-0.0130588	0.0046463	2	-2.85777e-05	6.0675e-08
2	1	0	1	1	10.0405	-0.0115138	-0.0110589	0.00457646	2	-2.84804e-05	5.06105e-08
2	1	0	1	1	10.0605	-0.00951466	-0.00906744	0.00458128	2	-2.83832e-05	4.15405e-08
2	1	0	1	1	10.0805	-0.00751548	-0.00706011	0.00455763	2	-2.82864e-05	3.21774e-08
2	1	0	1	1	10.1005	-0.0055163	-0.00506232	0.00455604	2	-2.81896e-05	2.30641e-08
2	1	0	1	1	10.1205	-0.00351712	-0.00307279	0.00455948	2	-2.80931e-05	1.40103e-08
2	1	0	1	1	10.1405	-0.00151793	-0.0010485	0.00456796	2	-2.79966e-05	4.78953e-09
2	1	0	0	1	10.1915	0.00357998	0.00405885	0.00479907	2	-2.77624e-05	1.94787e-08
2	1	0	0	1	10.2115	0.00557916	0.00607042	0.00475932	2	-2.76667e-05	2.88911e-08
2	1	0	0	1	10.2315	0.00757835	0.00806037	0.00476295	2	-2.75711e-05	3.83912e-08
2	1	0	0	1	10.2515	0.00957753	0.010063	0.00476724	2	-2.74756e-05	4.79729e-08
2	1	0	0	1	10.2715	0.0115767	0.0120642	0.00476074	2	-2.73801e-05	5.74346e-08
2	1	0	0	1	10.2915	0.0135759	0.0140474	0.00475918	2	-2.72848e-05	6.68541e-08
2	1	0	0	1	10.3115	0.0155751	0.0160513	0.0047532	2	-2.71893e-05	7.62952e-08
2	1	0	0	1	10.3315	0.0175743	0.0180599	0.00477576	2	-2.70939e-05	8.625e-08
2	1	0	0	1	10.3515	0.0195734	0.0200594	0.00476007	2	-2.69985e-05	9.54842e-08
2	1	0	0	1	10.3715	0.0215726	0.0220415	0.00476014	2	-2.69032e-05	1.04921e-07
2	1	0	0	1	10.3915	0.0235718	0.0240539	0.0047667	2	-2.68079e-05	1.14658e-07
2	1	0	0	1	10.4115	0.025571	0.0260541	0.00476868	2	-2.67125e-05	1.24244e-07
2	1	0	0	1	10.4315	0.0275702	0.0280309	0.00477124	2	-2.66171e-05	1.33742e-07
2	1	0	0	1	10.4514	0.0295716	0.0300582	0.00479554	2	-2.65219e-05	1.44145e-07
2	1	0	1	1	10.4713	0.0315685	0.0320538	0.0047741	2	-2.64264e-05	1.53028e-07
2	1	0	1	1	10.4913	0.0335677	0.0340334	0.004774	2	-2.63309e-05	1.62475e-07
2	1	0	1	1	10.5113	0.0355669	0.0360451	0.00478533	2	-2.62351e-05	1.72488e-07
2	1	0	1	1	10.5313	0.0375661	0.0380419	0.00479212	2	-2.61392e-05	1.82301e-07
2	1	0	1	1	10.5513	0.0395653	0.0400303	0.00480564	2	-2.60433e-05	1.92372e-07
2	1	0	1	1	10.5713	0.0415644	0.0420474	0.00478992	2	-2.59472e-05	2.01404e-07
2	1	0	1	1	10.5913	0.0435636	0.0440471	0.00480279	2	-2.58508e-05	2.11549e-07
2	1	0	1	1	10.6113	0.0455628	0.0460371	0.00480198	2	-2.57545e-05	2.21069e-07
2	1	0	1	1	10.6313	0.047562	0.0480404	0.00480697	2	-2.5658e-05	2.30928e-07
2	1	0	1	1	10.6513	0.0495612	0.0500379	0.00483446	2	-2.55614e-05	2.41907e-07
2	1	0	1	1	10.6713	0.0515603	0.052026	0.0048414	2	-2.54646e-05	2.51878e-07
2	1	0	1	1	10.6913	0.0535595	0.0540486	0.00484488	2	-2.53676e-05	2.61859e-07
2	1	0	1	1	10.7113	0.0555587	0.0560436	0.00486795	2	-2.52704e-05	2.72818e-07
2	1	0	1	1	10.7313	0.0575579	0.0580338	0.00486177	2	-2.5173e-05	2.82147e-07
2	1	0	1	1	10.7513	0.0595571	0.0600244	0.00487066	2	-2.50755e-05	2.92358e-07
2	1	0	1	1	10.7713	0.0615562	0.0620359	0.00488315	2	-2.49776e-05	3.02931e-07
2	1	0	1	1	10.7913	0.0635554	0.0640284	0.00489551	2	-2.48796e-05	3.13452e-07
2	1	0	1	1	10.8113	0.0655546	0.0660196	0.00491825	2	-2.47812e-05	3.24701e-07
2	1	0	1	1	10.8313	0.0675538	0.0680573	0.00494532	2	-2.46825e-05	3.36565e-07
2	1	0	1	1	10.8513	0.069553	0.0700275	0.00494872	2	-2.45837e-05	3.46547e-07
2	1	0	1	1	10.8713	0.0715522	0.0720325	0.00493877	2	-2.44845e-05	3.55752e-07
2	1	0	1	1	10.8913	0.0735513	0.0740212	0.0049695	2	-2.43852e-05	3.67849e-07
2	1	0	1	1	10.9113	0.0755505	0.0760095	0.00499422	2	-2.42854e-05	3.79608e-07
2	1	0	1	1	10.9313	0.0775497	0.0780267	0.00500173	2	-2.41854e-05	3.90269e-07
2	1	0	0	1	10.9511	0.0795489	0.0800078	0.00502149	2	-2.40858e-05	4.01758e-07
2	1	0	0	1	10.9711	0.0815481	0.0820145	0.00505986	2	-2.3985e-05	4.14982e-07
2	1	0	0	1	10.9911	0.0835472	0.0840148	0.00504705	2	-2.38839e-05	4.24027e-07
2	1	0	0	1	11.0111	0.0855464	0.0860073	0.0050793	2	-2.37824e-05	4.36857e-07
2	1	0	0	1	11.0311	0.0875456	0.0880075	0.00510922	2	-2.36806e-05	4.49649e-07
2	1	0	0	1	11.0511	0.0895448	0.0900137	0.0051071	2	-2.35783e-05	4.59709e-07
2	1	0	0	1	11.0711	0.091544	0.0920181	0.00514442	2	-2.34755e-05	4.7338e-07
2	1	0	0	1	11.0911	0.0935432	0.0940125	0.00515493	2	-2.33724e-05	4.84628e-07
2	1	0	0	1	11.1111	0.0955423	0.0960168	0.00518363	2	-2.32688e-05	4.97716e-07
2	1	0	0	1	11.1311	0.0975415	0.0980089	0.00520404	2	-2.31648e-05	5.10042e-07
2	1	0	0	1	11.1506	0.0994907	0.0999487	0.00521568	2	-2.3063e-05	5.21301e-07
2	0	0	0	1	11.1617	0.0994407	0.0998318	0.00260653	2	-2.30181e-05	2.60214e-07
2	0	0	0	1	11.1817	0.0974416	0.0978368	0.0018138	2	-2.29752e-05	1.77457e-07
2	0	0	0	1	11.2017	0.0954424	0.095842	0.00140078	2	-2.29436e-05	1.34254e-07
2	0	0	0	1	11.2217	0.0934432	0.093834	0.00110089	2	-2.29191e-05	1.03301e-07
2	0	0	0	1	11.2417	0.091444	0.0918315	0.000863349	2	-2.28996e-05	7.92826e-08
2	0	0	0	1	11.2617	0.0894448	0.0898143	0.000688089	2	-2.28845e-05	6.18002e-08
2	0	0	0	1	11.2817	0.0874457	0.0878264	0.000523169	2	-2.28726e-05	4.5948e-08
2	0	0	0	1	11.3017	0.0854465	0.0858047	0.000391846	2	-2.28636e-05	3.36222e-08
2	0	0	0	1	11.3217	0.0834473	0.0838323	0.000270595	2	-2.28573e-05	2.26846e-08
2	0	0	0	1	11.3417	0.0814481	0.0818089	0.000142221	2	-2.28533e-05	1.16349e-08
2	0	0	0	1	11.3617	0.0794489	0.0798297	4.078e-05	2	-2.28515e-05	3.25545e-09
2	0	0	1	1	11.3815	0.0774497	0.0778315	-4.00768e-05	2	-2.28519e-05	3.11924e-09
2	0	0	1	1	11.4015	0.0754506	0.0758401	-0.000118574	2	-2.28538e-05	8.99266e-09
2	0	0	1	1	11.4215	0.0734514	0.0738336	-0.000215548	2	-2.28574e-05	1.59147e-08
2	0	0	1	1	11.4415	0.0714522	0.0718381	-0.000281697	2	-2.28625e-05	2.02366e-08
2	0	0	1	1	11.4615	0.069453	0.0698435	-0.000360962	2	-2.2869e-05	2.52109e-08
2	0	0	1	1	11.497	0.0659045	0.0662443	-0.000488724	2	-2.28838e-05	3.23752e-08
2	0	0	0	1	11.5325	0.0623559	0.0627225	-0.000656429	2	-2.29005e-05	4.11729e-08
2	0	0	0	1	11.5525	0.0603567	0.0607317	-0.000652657	2	-2.29127e-05	3.96369e-08
2	0	0	0	1	11.5725	0.0583576	0.0587261	-0.000683243	2	-2.2926e-05	4.01242e-08
2	0	0	0	1	11.5925	0.0563584	0.0567331	-0.000723409	2	-2.29401e-05	4.10412e-08
2	0	0	0	1	11.6125	0.0543592	0.0547265	-0.000773383	2	-2.29554e-05	4.23245e-08
2	0	0	0	1	11.6325	0.05236	0.0527185	-0.000831714	2	-2.29714e-05	4.38467e-08
2	0	0	0	1	11.6525	0.0503608	0.0507152	-0.000873581	2	-2.29883e-05	4.43038e-08
2	0	0	0	1	11.6725	0.0483616	0.0487235	-0.000924323	2	-2.30061e-05	4.50363e-08
2	0	0	0	1	11.6925	0.0463625	0.0467168	-0.000952063	2	-2.30247e-05	4.44774e-08
2	0	0	0	1	11.7125	0.0443633	0.0447343	-0.000981734	2	-2.30439e-05	4.39172e-08
2	0	0	0	1	11.7325	0.0423641	0.0427232	-0.00102527	2	-2.3064e-05	4.38029e-08
2	0	0	1	1	11.7835	0.0372662	0.0376436	-0.00109184	2	-2.31176e-05	4.11006e-08
2	0	0	1	1	11.8035	0.035267	0.0356318	-0.00113593	2	-2.31401e-05	4.04751e-08
2	0	0	1	1	11.8235	0.0332678	0.0336245	-0.00115448	2	-2.31632e-05	3.88188e-08
2	0	0	1	1	11.8435	0.0312686	0.0316417	-0.0011934	2	-2.31868e-05	3.77612e-08
2	0	0	1	1	11.8634	0.0292627	0.0296534	-0.00124616	2	-2.3211e-05	3.69531e-08
2	0	0	0	1	11.8833	0.0272703	0.0276453	-0.00124812	2	-2.3236e-05	3.45047e-08
2	0	0	0	1	11.9033	0.0252711	0.0256547	-0.00126299	2	-2.32613e-05	3.24016e-08
2	0	0	0	1	11.9233	0.0232719	0.0236442	-0.00130107	2	-2.32873e-05	3.07627e-08
2	0	0	0	1	11.9433	0.0212727	0.021671	-0.00132627	2	-2.33138e-05	2.87417e-08
2	0	0	0	1	11.9633	0.0192736	0.0196554	-0.00135162	2	-2.33408e-05	2.65667e-08
2	0	0	0	1	11.9833	0.0172744	0.0176631	-0.00138951	2	-2.33684e-05	2.4543e-08
2	0	0	0	1	12.0033	0.0152752	0.0156658	-0.00140071	2	-2.33965e-05	2.19432e-08
2	0	0	0	1	12.0233	0.013276	0.0136589	-0.00143861	2	-2.34252e-05	1.96497e-08
2	0	0	0	1	12.0433	0.0112768	0.0116661	-0.00145497	2	-2.34542e-05	1.69738e-08
2	0	0	0	1	12.0633	0.00927765	0.00965139	-0.00147798	2	-2.34837e-05	1.42646e-08
2	0	0	0	1	12.0833	0.00727847	0.00765699	-0.00150721	2	-2.35137e-05	1.15407e-08
2	0	0	0	1	12.1033	0.00527929	0.00566069	-0.00152905	2	-2.35441e-05	8.65546e-09
2	0	0	0	1	12.1233	0.0032801	0.0036489	-0.00155076	2	-2.3575e-05	5.65856e-09
2	0	0	0	1	12.1433	0.00128092	0.0016492	-0.00158711	2	-2.36065e-05	2.61748e-09
2	0	0	0	1	12.1633	-0.00071826	-0.000339473	-0.00159247	2	-2.36382e-05	5.406e-10
2	0	0	0	1	12.1833	-0.00271744	-0.00234914	-0.00161105	2	-2.36704e-05	3.78458e-09
2	0	0	0	1	12.2033	-0.00471663	-0.00434862	-0.00164064	2	-2.37031e-05	7.13454e-09
2	0	0	0	1	12.2233	-0.00671581	-0.00634557	-0.00164008	2	-2.3736e-05	1.04072e-08
2	0	0	0	1	12.2433	-0.00871499	-0.00834781	-0.00168313	2	-2.37694e-05	1.40505e-08
2	0	0	0	1	12.2633	-0.0107142	-0.0103342	-0.00169725	2	-2.38033e-05	1.75396e-08
2	0	0	0	1	12.2833	-0.0127134	-0.0123464	-0.00171297	2	-2.38376e-05	2.11489e-08
2	0	0	0	1	12.3033	-0.0147125	-0.014337	-0.00174244	2	-2.38722e-05	2.49813e-08
2	0	0	0	1	12.3233	-0.0167117	-0.0163394	-0.00175152	2	-2.39073e-05	2.86189e-08
2	0	0	0	1	12.3433	-0.0187109	-0.018338	-0.00175787	2	-2.39427e-05	3.22359e-08
2	0	0	1	1	12.3631	-0.0207101	-0.0203341	-0.00179524	2	-2.39783e-05	3.65047e-08
2	0	0	1	1	12.3831	-0.0227093	-0.0223307	-0.00181082	2	-2.40144e-05	4.04369e-08
2	0	0	1	1	12.4031	-0.0247084	-0.0243227	-0.0018293	2	-2.4051e-05	4.44936e-08
2	0	0	1	1	12.4231	-0.0267076	-0.0263125	-0.00183652	2	-2.40879e-05	4.83235e-08
2	0	0	1	1	12.4431	-0.0287068	-0.0283332	-0.0018666	2	-2.41252e-05	5.28866e-08
2	0	0	1	1	12.4631	-0.030706	-0.0303367	-0.00187673	2	-2.4163e-05	5.69338e-08
2	0	0	1	1	12.4831	-0.0327052	-0.0323162	-0.00190167	2	-2.42009e-05	6.14549e-08
2	0	0	1	1	12.5031	-0.0347044	-0.0343272	-0.00191673	2	-2.42394e-05	6.5796e-08
2	0	0	1	1	12.5231	-0.0367035	-0.0363137	-0.00194742	2	-2.42782e-05	7.07182e-08
2	0	0	1	1	12.5431	-0.0387027	-0.0383261	-0.00195744	2	-2.43174e-05	7.50213e-08
2	0	0	1	1	12.5631	-0.0407019	-0.0403275	-0.00198174	2	-2.4357e-05	7.99186e-08
2	0	0	1	1	12.5831	-0.0427011	-0.0423222	-0.00199304	2	-2.4397e-05	8.43498e-08
2	0	0	1	1	12.6031	-0.0447003	-0.0443187	-0.00201143	2	-2.44372e-05	8.91437e-08
2	0	0	1	1	12.6231	-0.0466995	-0.0463451	-0.00203219	2	-2.44779e-05	9.41821e-08
2	0	0	1	1	12.6431	-0.0486986	-0.0483372	-0.00204404	2	-2.4519e-05	9.88031e-08
2	0	0	1	1	12.6631	-0.0506978	-0.0503235	-0.00205112	2	-2.45602e-05	1.0322e-07
2	0	0	1	1	12.6831	-0.052697	-0.0523128	-0.00209549	2	-2.46019e-05	1.09621e-07
2	0	0	1	1	12.7031	-0.0546962	-0.0543072	-0.00209112	2	-2.4644e-05	1.13563e-07
2	0	0	1	1	12.7231	-0.0566954	-0.0563061	-0.00212794	2	-2.46865e-05	1.19816e-07
2	0	0	1	1	12.7431	-0.0586946	-0.058307	-0.00214538	2	-2.47293e-05	1.25091e-07
2	0	0	1	1	12.7631	-0.0606937	-0.0603059	-0.00216592	2	-2.47725e-05	1.30618e-07
2	0	0	1	1	12.7831	-0.0626929	-0.0623067	-0.00219615	2	-2.48162e-05	1.36835e-07
2	0	0	1	1	12.8031	-0.0646921	-0.064303	-0.00220217	2	-2.48603e-05	1.41606e-07
2	0	0	1	1	12.8231	-0.0666913	-0.0662965	-0.00221565	2	-2.49047e-05	1.4689e-07
2	0	0	0	1	12.8429	-0.0686905	-0.0683204	-0.00227794	2	-2.49492e-05	1.5563e-07
2	0	0	0	1	12.8629	-0.0706896	-0.0703048	-0.0022596	2	-2.49945e-05	1.58861e-07
2	0	0	0	1	12.8829	-0.0726888	-0.0723062	-0.00227865	2	-2.50402e-05	1.64761e-07
2	0	0	0	1	12.9029	-0.074688	-0.0743163	-0.00229731	2	-2.50863e-05	1.70728e-07
2	0	0	0	1	12.9229	-0.0766872	-0.0763041	-0.00232898	2	-2.51328e-05	1.77711e-07
2	0	0	0	1	12.9429	-0.0786864	-0.078299	-0.0023506	2	-2.51796e-05	1.84049e-07
2	0	0	0	1	12.9629	-0.0806856	-0.0802951	-0.00236997	2	-2.52269e-05	1.90297e-07
2	0	0	0	1	12.9829	-0.0826847	-0.0822971	-0.00238277	2	-2.52747e-05	1.96095e-07
2	0	0	0	1	13.0029	-0.0846839	-0.0843051	-0.00242133	2	-2.53229e-05	2.0413e-07
2	0	0	0	1	13.0229	-0.0866831	-0.0862886	-0.00243968	2	-2.53716e-05	2.10516e-07
2	0	0	0	1	13.0429	-0.0886823	-0.0882975	-0.00247552	2	-2.5421e-05	2.18582e-07
2	0	0	0	1	13.0629	-0.0906815	-0.0902908	-0.00249042	2	-2.54707e-05	2.24862e-07
2	0	0	0	1	13.0829	-0.0926806	-0.0923015	-0.00251918	2	-2.55211e-05	2.32524e-07
2	0	0	0	1	13.1029	-0.0946798	-0.0942976	-0.00253634	2	-2.55718e-05	2.3917e-07
2	0	0	0	1	13.1229	-0.096679	-0.0963033	-0.00256178	2	-2.56231e-05	2.46707e-07
2	0	0	0	1	13.1429	-0.0986782	-0.0983004	-0.00260726	2	-2.56751e-05	2.56295e-07
2	0	0	0	1	13.1629	-0.100677	-0.100301	-0.00264813	2	-2.57278e-05	2.65609e-07
2	0	0	0	1	13.1829	-0.102677	-0.102303	-0.00267019	2	-2.57811e-05	2.73169e-07
2	0	0	0	1	13.2029	-0.104676	-0.104294	-0.00271109	2	-2.58351e-05	2.8275e-07
2	0	0	0	1	13.2229	-0.106675	-0.106306	-0.00275411	2	-2.58897e-05	2.92778e-07
2	0	0	0	1	13.2429	-0.108674	-0.108297	-0.00278254	2	-2.59451e-05	3.01342e-07
2	0	0	0	1	13.2629	-0.110673	-0.1103	-0.00281901	2	-2.60014e-05	3.10937e-07
2	0	0	0	1	13.2829	-0.112672	-0.112306	-0.00287116	2	-2.60585e-05	3.22448e-07
2	0	0	0	1	13.3029	-0.114672	-0.114311	-0.0029119	2	-2.61166e-05	3.32862e-07
2	0	0	0	1	13.3228	-0.116662	-0.116306	-0.00297213	2	-2.61752e-05	3.45675e-07
2	0	0	1	1	13.3427	-0.11867	-0.118298	-0.00301244	2	-2.62352e-05	3.56367e-07
2	0	0	1	1	13.3627	-0.120669	-0.120285	-0.00306559	2	-2.62963e-05	3.68744e-07
2	0	0	1	1	13.3827	-0.122668	-0.122294	-0.00314185	2	-2.63585e-05	3.84228e-07
2	0	0	1	1	13.4027	-0.124668	-0.124302	-0.00320951	2	-2.64222e-05	3.98948e-07
2	0	0	1	1	13.4227	-0.126667	-0.126299	-0.00327405	2	-2.64872e-05	4.13509e-07
2	0	0	1	1	13.4427	-0.128666	-0.128286	-0.00335767	2	-2.65536e-05	4.30741e-07
2	0	0	1	1	13.4627	-0.130665	-0.130285	-0.00342742	2	-2.66217e-05	4.46541e-07
2	0	0	1	1	13.4827	-0.132664	-0.132283	-0.00353069	2	-2.66914e-05	4.67051e-07
2	0	0	1	1	13.5027	-0.134663	-0.13428	-0.00362692	2	-2.6763e-05	4.87022e-07
2	0	0	1	1	13.5227	-0.136663	-0.136299	-0.00372885	2	-2.68367e-05	5.08238e-07
2	0	0	1	1	13.5427	-0.138662	-0.138292	-0.0038413	2	-2.69127e-05	5.31223e-07
2	0	0	1	1	13.5627	-0.140661	-0.140297	-0.00396837	2	-2.6991e-05	5.5675e-07
2	0	0	1	1	13.5827	-0.14266	-0.142294	-0.00409796	2	-2.70718e-05	5.83113e-07
2	0	0	1	1	13.6027	-0.144659	-0.144292	-0.00424127	2	-2.71554e-05	6.11983e-07
2	0	0	1	1	13.6227	-0.146659	-0.146287	-0.0043903	2	-2.72419e-05	6.42246e-07
2	0	0	1	1	13.6427	-0.148658	-0.148286	-0.00456063	2	-2.73315e-05	6.76279e-07
2	0	0	1	1	13.6627	-0.150657	-0.150282	-0.00472677	2	-2.74246e-05	7.10351e-07
2	0	0	1	1	13.6827	-0.152656	-0.152296	-0.0049148	2	-2.75213e-05	7.48506e-07
2	0	0	1	1	13.7027	-0.154655	-0.154299	-0.00511597	2	-2.76219e-05	7.89389e-07
2	0	0	1	1	13.7227	-0.156654	-0.156292	-0.00534909	2	-2.77267e-05	8.3602e-07
2	0	0	1	1	13.7427	-0.158654	-0.15829	-0.0055382	2	-2.78357e-05	8.76644e-07
2	0	0	1	1	13.7627	-0.160653	-0.160279	-0.0057916	2	-2.79493e-05	9.28271e-07
2	0	0	1	1	13.7827	-0.162652	-0.162295	-0.00603948	2	-2.80679e-05	9.80177e-07
2	0	0	1	1	13.8027	-0.164651	-0.164305	-0.00630872	2	-2.81915e-05	1.03656e-06
2	0	0	0	1	13.8225	-0.16665	-0.166319	-0.00659309	2	-2.83197e-05	1.09656e-06
2	0	0	0	1	13.8425	-0.16865	-0.168325	-0.00686619	2	-2.84545e-05	1.15575e-06
2	0	0	0	1	13.8625	-0.170649	-0.17031	-0.0071418	2	-2.85947e-05	1.21632e-06
2	0	0	0	1	13.8825	-0.172648	-0.172314	-0.00743523	2	-2.87409e-05	1.28119e-06
2	0	0	0	1	13.9025	-0.174647	-0.174311	-0.00775063	2	-2.8893e-05	1.35102e-06
2	0	0	0	1	13.9225	-0.176646	-0.176315	-0.00804931	2	-2.90512e-05	1.41921e-06
2	0	0	0	1	13.9425	-0.178645	-0.178311	-0.00835502	2	-2.92155e-05	1.48979e-06
2	0	0	0	1	13.9625	-0.180645	-0.180302	-0.00866544	2	-2.93859e-05	1.56239e-06
2	0	0	0	1	13.9825	-0.182644	-0.182301	-0.00896077	2	-2.95625e-05	1.63356e-06
2	0	0	0	1	14.0025	-0.184643	-0.184322	-0.00926678	2	-2.9745e-05	1.70807e-06
2	0	0	0	1	14.0225	-0.186642	-0.186301	-0.00954992	2	-2.99333e-05	1.77916e-06
2	0	0	0	1	14.0425	-0.188641	-0.188301	-0.00983565	2	-3.01276e-05	1.85206e-06
2	0	0	0	1	14.0625	-0.190641	-0.190309	-0.0101345	2	-3.03276e-05	1.92869e-06
2	0	0	1	1	14.1135	-0.195739	-0.19539	-0.0104851	2	-3.08567e-05	2.04869e-06
2	0	0	1	1	14.1335	-0.197738	-0.197381	-0.0107152	2	-3.10742e-05	2.11498e-06
2	0	0	1	1	14.1535	-0.199737	-0.199361	-0.0109634	2	-3.12962e-05	2.18567e-06
2	0	0	1	1	14.1735	-0.201736	-0.201383	-0.0111367	2	-3.15226e-05	2.24275e-06
2	0	0	1	1	14.1935	-0.203735	-0.20338	-0.0113734	2	-3.1753e-05	2.31313e-06
2	0	0	1	1	14.2135	-0.205734	-0.205372	-0.0115164	2	-3.19871e-05	2.36513e-06
2	0	0	1	1	14.2335	-0.207734	-0.207383	-0.0117005	2	-3.22245e-05	2.42649e-06
2	0	0	1	1	14.2535	-0.209733	-0.209387	-0.0118633	2	-3.2465e-05	2.48402e-06
2	0	0	1	1	14.2735	-0.211732	-0.211372	-0.0119726	2	-3.27083e-05	2.53067e-06
2	0	0	1	1	14.2935	-0.213731	-0.213368	-0.0120528	2	-3.2954e-05	2.57168e-06
2	0	0	0	1	14.3133	-0.21573	-0.21538	-0.0122297	2	-3.31999e-05	2.63404e-06
2	0	0	0	1	14.3333	-0.21773	-0.217364	-0.012267	2	-3.34502e-05	2.6664e-06
2	0	0	0	1	14.3533	-0.219729	-0.219369	-0.0123894	2	-3.37021e-05	2.71785e-06
2	0	0	0	1	14.3733	-0.221728	-0.221367	-0.0125019	2	-3.39556e-05	2.76751e-06
2	0	0	0	1	14.3933	-0.223727	-0.223377	-0.0125021	2	-3.42103e-05	2.79268e-06
2	0	0	0	1	14.4133	-0.225726	-0.225392	-0.0125572	2	-3.4466e-05	2.83028e-06
2	0	0	0	1	14.4333	-0.227725	-0.227396	-0.0125821	2	-3.47227e-05	2.86112e-06
2	0	0	0	1	14.4533	-0.229725	-0.229372	-0.0126209	2	-3.498e-05	2.89487e-06
2	0	0	0	1	14.4733	-0.231724	-0.231353	-0.0126095	2	-3.52379e-05	2.91725e-06
2	0	0	0	1	14.4933	-0.233723	-0.233373	-0.0126861	2	-3.54962e-05	2.96059e-06
2	0	0	0	1	14.5133	-0.235722	-0.235353	-0.0126831	2	-3.57546e-05	2.98501e-06
2	0	0	0	1	14.5333	-0.237721	-0.237349	-0.0126783	2	-3.60132e-05	3.00918e-06
2	0	0	0	1	14.5533	-0.239721	-0.239364	-0.0126566	2	-3.62719e-05	3.02953e-06
2	0	0	0	1	14.5733	-0.24172	-0.241356	-0.0126908	2	-3.65306e-05	3.06301e-06
2	0	0	0	1	14.5933	-0.243719	-0.243363	-0.0126481	2	-3.67892e-05	3.07808e-06
2	0	0	0	1	14.6133	-0.245718	-0.245369	-0.0126637	2	-3.70476e-05	3.10729e-06
2	0	0	0	1	14.6333	-0.247717	-0.247365	-0.0126255	2	-3.73056e-05	3.12311e-06
2	0	0	0	1	14.6533	-0.249716	-0.24935	-0.0126253	2	-3.7563e-05	3.14813e-06
2	0	0	0	1	14.6733	-0.251716	-0.251369	-0.0126106	2	-3.78201e-05	3.1699e-06
2	0	0	0	1	14.6933	-0.253715	-0.253354	-0.0125692	2	-3.80768e-05	3.18445e-06
2	0	0	0	1	14.7133	-0.255714	-0.255363	-0.0125605	2	-3.83329e-05	3.20748e-06
2	0	0	0	1	14.7333	-0.257713	-0.257352	-0.0125051	2	-3.85883e-05	3.21822e-06
2	0	0	0	1	14.7533	-0.259712	-0.259353	-0.0124493	2	-3.88433e-05	3.22878e-06
2	0	0	0	1	14.7733	-0.261712	-0.261349	-0.0124289	2	-3.90976e-05	3.24829e-06
2	0	0	0	1	14.7932	-0.263708	-0.263341	-0.0124371	2	-3.93501e-05	3.27519e-06
2	0	0	1	1	14.8131	-0.26571	-0.265353	-0.0124107	2	-3.96021e-05	3.29322e-06
2	0	0	1	1	14.8331	-0.267709	-0.267348	-0.0123473	2	-3.98546e-05	3.30102e-06
2	0	0	1	1	14.8531	-0.269708	-0.269344	-0.0123051	2	-4.01066e-05	3.31431e-06
2	0	0	1	1	14.8731	-0.271707	-0.271367	-0.0122858	2	-4.0358e-05	3.33396e-06
2	0	0	1	1	14.8931	-0.273707	-0.273348	-0.0122462	2	-4.06085e-05	3.34748e-06
2	0	0	1	1	14.9131	-0.275706	-0.275358	-0.0122581	2	-4.08583e-05	3.37537e-06
2	0	0	1	1	14.9331	-0.277705	-0.277358	-0.0121976	2	-4.11076e-05	3.38311e-06
2	0	0	1	1	14.9531	-0.279704	-0.279349	-0.0121272	2	-4.13563e-05	3.38772e-06
2	0	0	1	1	14.9731	-0.281703	-0.281354	-0.0121291	2	-4.16043e-05	3.41255e-06
2	0	0	1	1	14.9931	-0.283703	-0.283366	-0.0121208	2	-4.1852e-05	3.43461e-06
2	0	0	1	1	15.0131	-0.285702	-0.285336	-0.0120552	2	-4.20988e-05	3.43977e-06
2	0	0	1	1	15.0331	-0.287701	-0.287345	-0.0120616	2	-4.23453e-05	3.46586e-06
2	0	0	1	1	15.0531	-0.2897	-0.289337	-0.0120051	2	-4.25911e-05	3.47352e-06
2	0	0	1	1	15.0731	-0.291699	-0.291331	-0.0119982	2	-4.28365e-05	3.49544e-06
2	0	0	1	1	15.0931	-0.293698	-0.293357	-0.0119628	2	-4.30817e-05	3.50938e-06
2	0	0	1	1	15.1131	-0.295698	-0.29535	-0.0119485	2	-4.33262e-05	3.52898e-06
2	0	0	1	1	15.1331	-0.297697	-0.29735	-0.0119391	2	-4.35704e-05	3.55008e-06
2	0	0	1	1	15.1531	-0.299696	-0.299328	-0.0119272	2	-4.38141e-05	3.57013e-06
2	0	0	1	1	15.1731	-0.301695	-0.301352	-0.0119355	2	-4.40575e-05	3.59678e-06
2	0	0	1	1	15.1931	-0.303694	-0.303343	-0.0119189	2	-4.43007e-05	3.61551e-06
2	0	0	1	1	15.2131	-0.305694	-0.305357	-0.0119057	2	-4.45437e-05	3.6355e-06
2	0	0	1	1	15.2331	-0.307693	-0.30737	-0.0118562	2	-4.47863e-05	3.64423e-06
2	0	0	1	1	15.2531	-0.309692	-0.309364	-0.0118532	2	-4.50287e-05	3.66695e-06
2	0	0	1	1	15.2731	-0.311691	-0.311355	-0.0118147	2	-4.52709e-05	3.67855e-06
2	0	0	0	1	15.2929	-0.31369	-0.313349	-0.0118698	2	-4.55107e-05	3.71941e-06
2	0	0	0	1	15.3129	-0.315689	-0.315344	-0.0118296	2	-4.57527e-05	3.73039e-06
2	0	0	0	1	15.3329	-0.317689	-0.317335	-0.0118223	2	-4.59946e-05	3.75161e-06
2	0	0	0	1	15.3529	-0.319688	-0.319354	-0.0118422	2	-4.62365e-05	3.78186e-06
2	0	0	0	1	15.3729	-0.321687	-0.32135	-0.0118237	2	-4.64783e-05	3.79956e-06
2	0	0	0	1	15.3929	-0.323686	-0.323344	-0.0118498	2	-4.67201e-05	3.83157e-06
2	0	0	0	1	15.4129	-0.325685	-0.325326	-0.0118176	2	-4.6962e-05	3.84456e-06
2	0	0	0	1	15.4329	-0.327685	-0.327342	-0.011824	2	-4.72038e-05	3.8705e-06
2	0	0	0	1	15.4529	-0.329684	-0.329355	-0.0118709	2	-4.7446e-05	3.90974e-06
2	0	0	0	1	15.4729	-0.331683	-0.331327	-0.0118044	2	-4.76881e-05	3.91113e-06
2	0	0	0	1	15.4929	-0.333682	-0.333336	-0.0118656	2	-4.79304e-05	3.95523e-06
2	0	0	0	1	15.5129	-0.335681	-0.335327	-0.0118793	2	-4.8173e-05	3.98345e-06
2	0	0	0	1	15.5329	-0.33768	-0.337331	-0.011912	2	-4.84158e-05	4.01827e-06
2	0	0	0	1	15.5529	-0.33968	-0.339318	-0.0118973	2	-4.86588e-05	4.03698e-06
2	0	0	0	1	15.5729	-0.341679	-0.341325	-0.0119209	2	-4.89021e-05	4.0689e-06
2	0	0	0	1	15.5929	-0.343678	-0.343323	-0.0119477	2	-4.91459e-05	4.10193e-06
2	0	0	0	1	15.6129	-0.345677	-0.345331	-0.0119545	2	-4.93902e-05	4.12825e-06
2	0	0	0	1	15.6329	-0.347676	-0.347326	-0.0120044	2	-4.96349e-05	4.16946e-06
2	0	0	0	1	15.6529	-0.349676	-0.349341	-0.0120084	2	-4.988e-05	4.19503e-06
2	0	0	0	1	15.6729	-0.351675	-0.351322	-0.0120792	2	-5.01254e-05	4.2437e-06
2	0	0	0	1	15.6929	-0.353674	-0.353322	-0.0120528	2	-5.03715e-05	4.25853e-06
2	0	0	0	1	15.7129	-0.355673	-0.355321	-0.0121065	2	-5.06183e-05	4.3017e-06
2	0	0	0	1	15.7329	-0.357672	-0.357322	-0.012141	2	-5.08654e-05	4.33826e-06
2	0	0	0	1	15.7529	-0.359671	-0.359332	-0.0121421	2	-5.11133e-05	4.36304e-06
2	0	0	0	1	15.7728	-0.361673	-0.361332	-0.0122491	2	-5.13608e-05	4.42599e-06
2	0	0	1	1	15.7927	-0.36367	-0.36331	-0.012243	2	-5.1609e-05	4.44801e-06
2	0	0	1	1	15.8127	-0.365669	-0.365318	-0.0122743	2	-5.18589e-05	4.48403e-06
2	0	0	1	1	15.8327	-0.367668	-0.367301	-0.0122841	2	-5.21098e-05	4.51197e-06
2	0	0	1	1	15.8527	-0.369667	-0.369305	-0.012372	2	-5.23614e-05	4.56905e-06
2	0	0	1	1	15.8727	-0.371667	-0.371331	-0.0123935	2	-5.26139e-05	4.60211e-06
2	0	0	1	1	15.8927	-0.373666	-0.373317	-0.0124283	2	-5.28672e-05	4.63971e-06
2	0	0	1	1	15.9127	-0.375665	-0.375337	-0.0124801	2	-5.31215e-05	4.68424e-06
2	0	0	1	1	15.9327	-0.377664	-0.377312	-0.0125268	2	-5.33765e-05	4.7265e-06
2	0	0	1	1	15.9527	-0.379663	-0.379323	-0.0125535	2	-5.36328e-05	4.76185e-06
2	0	0	1	1	15.9727	-0.381662	-0.381328	-0.0126582	2	-5.38898e-05	4.82693e-06
2	0	0	1	1	15.9927	-0.383662	-0.383314	-0.0126704	2	-5.41479e-05	4.85673e-06
2	0	0	1	1	16.0127	-0.385661	-0.385317	-0.0127444	2	-5.44072e-05	4.91065e-06
2	0	0	1	1	16.0327	-0.38766	-0.3873	-0.0127913	2	-5.46674e-05	4.95407e-06
2	0	0	1	1	16.0527	-0.389659	-0.389301	-0.0128744	2	-5.49289e-05	5.01204e-06
2	0	0	1	1	16.0727	-0.391658	-0.391297	-0.0129257	2	-5.51916e-05	5.05778e-06
2	0	0	1	1	16.0927	-0.393658	-0.393315	-0.0130201	2	-5.54556e-05	5.12101e-06
2	0	0	1	1	16.1127	-0.395657	-0.395297	-0.0130296	2	-5.57208e-05	5.15055e-06
2	0	0	1	1	16.1327	-0.397656	-0.397301	-0.0131062	2	-5.59873e-05	5.20712e-06
2	0	0	1	1	16.1517	-0.399555	-0.399204	-0.0131653	2	-5.62418e-05	5.25563e-06
2	1	0	0	0	16.1621	-0.399455	-0.399063	-0.0108141	2	-5.63661e-05	4.31552e-06
2	1	0	0	0	16.1821	-0.397456	-0.397058	-0.00968169	2	-5.65637e-05	3.8442e-06
2	1	0	0	0	16.2021	-0.395457	-0.395053	-0.00908092	2	-5.67459e-05	3.58744e-06
2	1	0	0	0	16.2221	-0.393458	-0.393049	-0.00869493	2	-5.69186e-05	3.41754e-06
2	1	0	0	0	16.2421	-0.391458	-0.391044	-0.00832212	2	-5.70838e-05	3.25431e-06
2	1	0	0	0	16.2621	-0.389459	-0.389046	-0.00806581	2	-5.72428e-05	3.13797e-06
2	1	0	0	0	16.2821	-0.38746	-0.387056	-0.00777322	2	-5.73963e-05	3.00867e-06
2	1	0	0	0	16.3021	-0.385461	-0.385057	-0.0075181	2	-5.75447e-05	2.8949e-06
2	1	0	0	0	16.3221	-0.383462	-0.38306	-0.00730279	2	-5.76881e-05	2.79741e-06
2	1	0	0	0	16.3421	-0.381463	-0.381064	-0.00711327	2	-5.78275e-05	2.71061e-06
2	1	0	0	0	16.3621	-0.379463	-0.379073	-0.00688684	2	-5.79626e-05	2.61062e-06
2	1	0	0	0	16.3821	-0.377464	-0.377042	-0.00672427	2	-5.80937e-05	2.53533e-06
2	1	0	0	0	16.4021	-0.375465	-0.37506	-0.00652322	2	-5.82212e-05	2.4466e-06
2	1	0	0	0	16.4221	-0.373466	-0.373048	-0.00635843	2	-5.83451e-05	2.372e-06
2	1	0	0	0	16.4421	-0.371467	-0.371055	-0.00621334	2	-5.84655e-05	2.30549e-06
2	1	0	0	0	16.4621	-0.369467	-0.36905	-0.0060111	2	-5.85825e-05	2.2184e-06
2	1	0	0	0	16.4821	-0.367468	-0.36705	-0.00586298	2	-5.86963e-05	2.15201e-06
2	1	0	0	0	16.5021	-0.365469	-0.365042	-0.00569602	2	-5.88071e-05	2.07929e-06
2	1	0	0	0	16.5221	-0.36347	-0.363067	-0.00561299	2	-5.8915e-05	2.03789e-06
2	1	0	0	0	16.542	-0.361466	-0.361056	-0.00542192	2	-5.90193e-05	1.95761e-06
2	1	0	1	0	16.5619	-0.359472	-0.359061	-0.00528071	2	-5.91207e-05	1.8961e-06
2	1	0	1	0	16.5819	-0.357472	-0.357074	-0.00517056	2	-5.92201e-05	1.84627e-06
2	1	0	1	0	16.6019	-0.355473	-0.355079	-0.00503888	2	-5.93168e-05	1.7892e-06
2	1	0	0	0	16.6529	-0.350375	-0.349962	-0.00448663	2	-5.95568e-05	1.57015e-06
2	1	0	0	0	16.6729	-0.348376	-0.34797	-0.00437321	2	-5.96452e-05	1.52175e-06
2	1	0	0	0	16.6929	-0.346377	-0.345984	-0.00424958	2	-5.97312e-05	1.47029e-06
2	1	0	0	0	16.7129	-0.344378	-0.343972	-0.00412205	2	-5.98148e-05	1.41787e-06
2	1	0	0	0	16.7329	-0.342379	-0.341971	-0.00402806	2	-5.9896e-05	1.37748e-06
2	1	0	0	0	16.7529	-0.340379	-0.339963	-0.00390295	2	-5.9975e-05	1.32686e-06
2	1	0	0	0	16.7729	-0.33838	-0.337957	-0.00380468	2	-6.0052e-05	1.28582e-06
2	1	0	0	0	16.7929	-0.336381	-0.335975	-0.00369102	2	-6.01267e-05	1.24009e-06
2	1	0	0	0	16.8129	-0.334382	-0.333972	-0.00357956	2	-6.01993e-05	1.19547e-06
2	1	0	0	0	16.8329	-0.332383	-0.331969	-0.00348174	2	-6.02699e-05	1.15583e-06
2	1	0	0	0	16.8529	-0.330383	-0.329963	-0.00337844	2	-6.03383e-05	1.11476e-06
2	1	0	0	0	16.8729	-0.328384	-0.327969	-0.0032857	2	-6.04048e-05	1.07761e-06
2	1	0	0	0	16.8929	-0.326385	-0.325972	-0.00318277	2	-6.04692e-05	1.0375e-06
2	1	0	0	0	16.9129	-0.324386	-0.323977	-0.00308596	2	-6.05317e-05	9.99781e-07
2	1	0	0	0	16.9329	-0.322387	-0.32199	-0.0029962	2	-6.05924e-05	9.64746e-07
2	1	0	0	0	16.9529	-0.320388	-0.32	-0.00289799	2	-6.0651e-05	9.27358e-07
2	1	0	0	0	16.9729	-0.318388	-0.317989	-0.00278775	2	-6.07077e-05	8.86472e-07
2	1	0	0	0	16.9929	-0.316389	-0.315972	-0.00270744	2	-6.07627e-05	8.55475e-07
2	1	0	0	0	17.0129	-0.31439	-0.313975	-0.00262659	2	-6.08157e-05	8.24683e-07
2	1	0	1	0	17.0327	-0.312391	-0.311988	-0.00250535	2	-6.08664e-05	7.8164e-07
2	1	0	1	0	17.0527	-0.310392	-0.309991	-0.00243806	2	-6.09159e-05	7.55777e-07
2	1	0	1	0	17.0727	-0.308392	-0.307991	-0.00235022	2	-6.09635e-05	7.23848e-07
2	1	0	1	0	17.0927	-0.306393	-0.305982	-0.0022773	2	-6.10095e-05	6.96814e-07
2	1	0	1	0	17.1127	-0.304394	-0.303982	-0.00218681	2	-6.10536e-05	6.64753e-07
2	1	0	1	0	17.1327	-0.302395	-0.301997	-0.00209757	2	-6.10962e-05	6.33459e-07
2	1	0	1	0	17.1527	-0.300396	-0.299974	-0.0019911	2	-6.11369e-05	5.9728e-07
2	1	0	1	0	17.1727	-0.298397	-0.297984	-0.00191712	2	-6.1176e-05	5.71272e-07
2	1	0	1	0	17.1927	-0.296397	-0.29598	-0.00183772	2	-6.12136e-05	5.43928e-07
2	1	0	1	0	17.2127	-0.294398	-0.293993	-0.00175665	2	-6.12493e-05	5.16442e-07
2	1	0	1	0	17.2327	-0.292399	-0.291988	-0.00166253	2	-6.12833e-05	4.85439e-07
2	1	0	1	0	17.2527	-0.2904	-0.28998	-0.0015974	2	-6.13155e-05	4.63214e-07
2	1	0	1	0	17.2727	-0.288401	-0.287983	-0.00150494	2	-6.13462e-05	4.33397e-07
2	1	0	1	0	17.2927	-0.286401	-0.285987	-0.00141671	2	-6.13754e-05	4.05161e-07
2	1	0	1	0	17.3127	-0.284402	-0.283993	-0.00132606	2	-6.14027e-05	3.76592e-07
2	1	0	1	0	17.3327	-0.282403	-0.281983	-0.0012431	2	-6.14283e-05	3.50534e-07
2	1	0	1	0	17.3527	-0.280404	-0.27999	-0.00116147	2	-6.14522e-05	3.25201e-07
2	1	0	1	0	17.3727	-0.278405	-0.277982	-0.00108374	2	-6.14744e-05	3.0126e-07
2	1	0	1	0	17.3927	-0.276406	-0.275989	-0.000981878	2	-6.14949e-05	2.70987e-07
2	1	0	1	0	17.4127	-0.274406	-0.274008	-0.000895601	2	-6.15137e-05	2.45402e-07
2	1	0	1	0	17.4327	-0.272407	-0.271994	-0.000820373	2	-6.15307e-05	2.23136e-07
2	1	0	1	0	17.4527	-0.270408	-0.270004	-0.000717606	2	-6.15458e-05	1.93757e-07
2	1	0	1	0	17.4727	-0.268409	-0.268011	-0.000628135	2	-6.15592e-05	1.68347e-07
2	1	0	1	0	17.4927	-0.26641	-0.265999	-0.000529051	2	-6.15706e-05	1.40727e-07
2	1	0	1	0	17.5127	-0.26441	-0.263995	-0.000432454	2	-6.15801e-05	1.14166e-07
2	1	0	0	0	17.5325	-0.262411	-0.261993	-0.000334562	2	-6.15872e-05	8.76528e-08
2	1	0	0	0	17.5525	-0.260412	-0.260001	-0.000233813	2	-6.15927e-05	6.07914e-08
2	1	0	0	0	17.5725	-0.258413	-0.258001	-0.000126823	2	-6.15963e-05	3.27204e-08
2	1	0	0	0	17.5925	-0.256414	-0.255993	-2.52227e-05	2	-6.15975e-05	6.45683e-09
2	1	0	0	0	17.6125	-0.254414	-0.254001	8.61677e-05	2	-6.15967e-05	2.18867e-08
2	1	0	0	0	17.6325	-0.252415	-0.251993	0.000218375	2	-6.15936e-05	5.5029e-08
2	1	0	0	0	17.6525	-0.250416	-0.249991	0.000336241	2	-6.1588e-05	8.40572e-08
2	1	0	0	0	17.6725	-0.248417	-0.248005	0.000445083	2	-6.15801e-05	1.10383e-07
2	1	0	0	0	17.6925	-0.246418	-0.246006	0.000564719	2	-6.15696e-05	1.38924e-07
2	1	0	0	0	17.7125	-0.244419	-0.244016	0.000728935	2	-6.15564e-05	1.77872e-07
2	1	0	0	0	17.7325	-0.242419	-0.242021	0.000864001	2	-6.15405e-05	2.09106e-07
2	1	0	0	0	17.7525	-0.24042	-0.240019	0.0010068	2	-6.15214e-05	2.41652e-07
2	1	0	0	0	17.7725	-0.238421	-0.238004	0.00117022	2	-6.14993e-05	2.78516e-07
2	1	0	0	0	17.7925	-0.236422	-0.236002	0.00133992	2	-6.14741e-05	3.16222e-07
2	1	0	0	0	17.8125	-0.234423	-0.233995	0.00151895	2	-6.14454e-05	3.55427e-07
2	1	0	0	0	17.8325	-0.232424	-0.232008	0.0017036	2	-6.14132e-05	3.95249e-07
2	1	0	0	0	17.8525	-0.230424	-0.230018	0.00188585	2	-6.13771e-05	4.33779e-07
2	1	0	0	0	17.8725	-0.228425	-0.228036	0.00209389	2	-6.13373e-05	4.77482e-07
2	1	0	0	0	17.8925	-0.226426	-0.226017	0.00229793	2	-6.12932e-05	5.19372e-07
2	1	0	0	0	17.9125	-0.224427	-0.224004	0.0025191	2	-6.12446e-05	5.64288e-07
2	1	0	0	0	17.9325	-0.222428	-0.222019	0.0027621	2	-6.11915e-05	6.13238e-07
2	1	0	0	0	17.9525	-0.220428	-0.220011	0.00301023	2	-6.11336e-05	6.62282e-07
2	1	0	0	0	17.9725	-0.218429	-0.217993	0.00327555	2	-6.10705e-05	7.14047e-07
2	1	0	0	0	17.9925	-0.21643	-0.216009	0.00354875	2	-6.10021e-05	7.66561e-07
2	1	0	1	0	18.0123	-0.214431	-0.214013	0.00384402	2	-6.09285e-05	8.22669e-07
2	1	0	1	0	18.0323	-0.212432	-0.211995	0.00413496	2	-6.08485e-05	8.76591e-07
2	1	0	1	0	18.0523	-0.210433	-0.210023	0.00442903	2	-6.07627e-05	9.30196e-07
2	1	0	1	0	18.0723	-0.208433	-0.208023	0.00474724	2	-6.06708e-05	9.87535e-07
2	1	0	1	0	18.0923	-0.206434	-0.206022	0.00508147	2	-6.05725e-05	1.04689e-06
2	1	0	1	0	18.1123	-0.204435	-0.204024	0.00539427	2	-6.04676e-05	1.10056e-06
2	1	0	1	0	18.1323	-0.202436	-0.201999	0.00574777	2	-6.03558e-05	1.16104e-06
2	1	0	1	0	18.1523	-0.200437	-0.200005	0.0060821	2	-6.02373e-05	1.21645e-06
2	1	0	1	0	18.1723	-0.198437	-0.198001	0.00642348	2	-6.01119e-05	1.27185e-06
2	1	0	1	0	18.1923	-0.196438	-0.195976	0.00676972	2	-5.99796e-05	1.3267e-06
2	1	0	1	0	18.2123	-0.194439	-0.19401	0.00711482	2	-5.98406e-05	1.38035e-06
2	1	0	1	0	18.2323	-0.19244	-0.19199	0.00743051	2	-5.96948e-05	1.42658e-06
2	1	0	1	0	18.2523	-0.190441	-0.189991	0.00779494	2	-5.95423e-05	1.48097e-06
2	1	0	1	0	18.2723	-0.188442	-0.187989	0.00809351	2	-5.93834e-05	1.52149e-06
2	1	0	1	0	18.2923	-0.186442	-0.185993	0.0083918	2	-5.92182e-05	1.56082e-06
2	1	0	1	0	18.3123	-0.184443	-0.183985	0.00866743	2	-5.90472e-05	1.59468e-06
2	1	0	1	0	18.3323	-0.182444	-0.18199	0.00893587	2	-5.88708e-05	1.62624e-06
2	1	0	1	0	18.3523	-0.180445	-0.179958	0.00919333	2	-5.86892e-05	1.65441e-06
2	1	0	1	0	18.3723	-0.178446	-0.177981	0.0094179	2	-5.8503e-05	1.67621e-06
2	1	0	1	0	18.3923	-0.176446	-0.175986	0.00960571	2	-5.83127e-05	1.69047e-06
2	1	0	1	0	18.4123	-0.174447	-0.173983	0.00978425	2	-5.81186e-05	1.7023e-06
2	1	0	1	0	18.4323	-0.172448	-0.171988	0.00992776	2	-5.79214e-05	1.70746e-06
2	1	0	1	0	18.4523	-0.170449	-0.169986	0.0100375	2	-5.77218e-05	1.70624e-06
2	1	0	1	0	18.4723	-0.16845	-0.167981	0.0101157	2	-5.75201e-05	1.69924e-06
2	1	0	1	0	18.4922	-0.16646	-0.165988	0.0101767	2	-5.7318e-05	1.68922e-06
2	1	0	1	0	18.5431	-0.161353	-0.160885	0.0100255	2	-5.67946e-05	1.61295e-06
2	1	0	1	0	18.5631	-0.159353	-0.158903	0.00995949	2	-5.65899e-05	1.5826e-06
2	1	0	1	0	18.5831	-0.157354	-0.156898	0.00989891	2	-5.63861e-05	1.55312e-06
2	1	0	1	0	18.6031	-0.155355	-0.154917	0.00985826	2	-5.61834e-05	1.52721e-06
2	1	0	1	0	18.6231	-0.153356	-0.152931	0.00974477	2	-5.59823e-05	1.49028e-06
2	1	0	1	0	18.6431	-0.151357	-0.150893	0.00966186	2	-5.57831e-05	1.45791e-06
2	1	0	1	0	18.6631	-0.149357	-0.148923	0.00953867	2	-5.5586e-05	1.42053e-06
2	1	0	1	0	18.6831	-0.147358	-0.146896	0.00942007	2	-5.53912e-05	1.38377e-06
2	1	0	1	0	18.7031	-0.145359	-0.144915	0.00926305	2	-5.51991e-05	1.34235e-06
2	1	0	1	0	18.7231	-0.14336	-0.142907	0.00911449	2	-5.50097e-05	1.30252e-06
2	1	0	1	0	18.7431	-0.141361	-0.140907	0.00900476	2	-5.4823e-05	1.26883e-06
2	1	0	1	0	18.7631	-0.139362	-0.138903	0.00885801	2	-5.46392e-05	1.23041e-06
2	1	0	1	0	18.7831	-0.137362	-0.136902	0.00868537	2	-5.44584e-05	1.18904e-06
2	1	0	1	0	18.8031	-0.135363	-0.134898	0.00855367	2	-5.42806e-05	1.15387e-06
2	1	0	1	0	18.8231	-0.133364	-0.132923	0.00839434	2	-5.41061e-05	1.1158e-06
2	1	0	1	0	18.8431	-0.131365	-0.13091	0.00827102	2	-5.39342e-05	1.08276e-06
2	1	0	1	0	18.8631	-0.129366	-0.128908	0.00812185	2	-5.37654e-05	1.04697e-06
2	1	0	1	0	18.8831	-0.127366	-0.126913	0.00796924	2	-5.35995e-05	1.0114e-06
2	1	0	1	0	18.9031	-0.125367	-0.124926	0.00782648	2	-5.34365e-05	9.7773e-07
2	1	0	1	0	18.9231	-0.123368	-0.122927	0.00767151	2	-5.32762e-05	9.43034e-07
2	1	0	1	0	18.9431	-0.121369	-0.120922	0.0075794	2	-5.31186e-05	9.16516e-07
2	1	0	1	0	18.9631	-0.11937	-0.118928	0.00744067	2	-5.29636e-05	8.84902e-07
2	1	0	1	0	18.983	-0.117375	-0.116936	0.00729683	2	-5.28118e-05	8.53264e-07
2	1	0	0	0	19.0029	-0.115371	-0.114928	0.00720904	2	-5.26624e-05	8.28519e-07
2	1	0	0	0	19.0229	-0.113372	-0.112928	0.00708645	2	-5.25147e-05	8.00261e-07
2	1	0	0	0	19.0429	-0.111373	-0.110924	0.00695072	2	-5.23693e-05	7.71001e-07
2	1	0	0	0	19.0629	-0.109374	-0.10893	0.00682193	2	-5.22261e-05	7.4311e-07
2	1	0	0	0	19.0829	-0.107375	-0.106924	0.00673278	2	-5.20851e-05	7.19898e-07
2	1	0	0	0	19.1029	-0.105375	-0.104939	0.00663003	2	-5.1946e-05	6.95749e-07
2	1	0	0	0	19.1229	-0.103376	-0.102927	0.00656041	2	-5.18089e-05	6.75244e-07
2	1	0	0	0	19.1429	-0.101377	-0.100932	0.00644409	2	-5.16736e-05	6.50415e-07
2	1	0	0	0	19.1629	-0.0993779	-0.0989304	0.00634861	2	-5.15401e-05	6.28071e-07
2	1	0	0	0	19.1829	-0.0973787	-0.0969248	0.0063018	2	-5.14082e-05	6.108e-07
2	1	0	0	0	19.2029	-0.0953796	-0.0949253	0.00620128	2	-5.1278e-05	5.88658e-07
2	1	0	0	0	19.2229	-0.0933804	-0.0929311	0.00613355	2	-5.11495e-05	5.69997e-07
2	1	0	0	0	19.2429	-0.0913812	-0.0909335	0.00609069	2	-5.10223e-05	5.53848e-07
2	1	0	0	0	19.2629	-0.089382	-0.0889293	0.00599756	2	-5.08967e-05	5.33359e-07
2	1	0	0	0	19.2829	-0.0873828	-0.0869121	0.00595605	2	-5.07722e-05	5.17652e-07
2	1	0	0	0	19.3029	-0.0853836	-0.0849232	0.00588075	2	-5.06492e-05	4.99412e-07
2	1	0	0	0	19.3229	-0.0833845	-0.0829296	0.00574598	2	-5.05273e-05	4.76512e-07
2	1	0	0	0	19.3429	-0.0813853	-0.0809373	0.00572838	2	-5.04067e-05	4.6364e-07
2	1	0	0	0	19.3629	-0.0793861	-0.0789298	0.00565786	2	-5.02873e-05	4.46573e-07
2	1	0	0	0	19.3829	-0.0773869	-0.076936	0.0056159	2	-5.01688e-05	4.32065e-07
2	1	0	0	0	19.4029	-0.0753877	-0.0749412	0.00556598	2	-5.00515e-05	4.17121e-07
2	1	0	0	0	19.4229	-0.0733885	-0.0729402	0.00553448	2	-4.99351e-05	4.03686e-07
2	1	0	0	0	19.4429	-0.0713894	-0.0709299	0.00550537	2	-4.98196e-05	3.90495e-07
2	1	0	0	0	19.4629	-0.0693902	-0.0689429	0.00546276	2	-4.9705e-05	3.76619e-07
2	1	0	1	0	19.4827	-0.067391	-0.0669405	0.00538373	2	-4.95922e-05	3.6039e-07
2	1	0	1	0	19.5027	-0.0653918	-0.0649374	0.00541745	2	-4.94793e-05	3.51795e-07
2	1	0	1	0	19.5227	-0.0633926	-0.0629483	0.00536946	2	-4.93671e-05	3.37999e-07
2	1	0	1	0	19.5427	-0.0613935	-0.0609278	0.00528883	2	-4.92555e-05	3.22237e-07
2	1	0	1	0	19.5627	-0.0593943	-0.0589446	0.00528076	2	-4.91449e-05	3.11272e-07
2	1	0	1	0	19.5827	-0.0573951	-0.0569254	0.00524132	2	-4.90348e-05	2.98365e-07
2	1	0	1	0	19.6027	-0.0553959	-0.0549329	0.00520158	2	-4.89255e-05	2.85738e-07
2	1	0	1	0	19.6227	-0.0533967	-0.0529458	0.00516061	2	-4.88168e-05	2.73232e-07
2	1	0	1	0	19.6427	-0.0513975	-0.0509509	0.00512866	2	-4.87086e-05	2.6131e-07
2	1	0	1	0	19.6627	-0.0493984	-0.0489425	0.00512276	2	-4.8601e-05	2.50721e-07
2	1	0	1	0	19.6827	-0.0473992	-0.0469513	0.00505171	2	-4.8494e-05	2.37184e-07
2	1	0	1	0	19.7027	-0.0454	-0.044948	0.0050308	2	-4.83874e-05	2.26125e-07
2	1	0	1	0	19.7227	-0.0434008	-0.0429528	0.00503115	2	-4.82814e-05	2.16102e-07
2	1	0	1	0	19.7427	-0.0414016	-0.0409495	0.00501171	2	-4.81757e-05	2.05227e-07
2	1	0	1	0	19.7627	-0.0394024	-0.0389604	0.00494402	2	-4.80706e-05	1.92621e-07
2	1	0	1	0	19.7827	-0.0374033	-0.0369409	0.00499333	2	-4.79657e-05	1.84458e-07
2	1	0	1	0	19.8027	-0.0354041	-0.0349699	0.00495057	2	-4.78613e-05	1.73121e-07
2	1	0	1	0	19.8227	-0.0334049	-0.0329492	0.00493956	2	-4.77572e-05	1.62755e-07
2	1	0	1	0	19.8427	-0.0314057	-0.0309548	0.00489587	2	-4.76536e-05	1.51551e-07
2	1	0	1	0	19.8627	-0.0294065	-0.0289561	0.00487815	2	-4.75502e-05	1.41252e-07
2	1	0	1	0	19.8827	-0.0274073	-0.0269386	0.00490505	2	-4.74471e-05	1.32135e-07
2	1	0	1	0	19.9027	-0.0254082	-0.0249508	0.0048688	2	-4.73445e-05	1.2148e-07
2	1	0	1	0	19.9227	-0.023409	-0.0229572	0.0048598	2	-4.72422e-05	1.11568e-07
2	1	0	1	0	19.9427	-0.0214098	-0.0209798	0.00483259	2	-4.714e-05	1.01387e-07
2	1	0	1	0	19.9616	-0.0195135	-0.0190724	0.00485274	2	-4.70435e-05	9.25535e-08