File: TAP_Report/Data/MB_Suscept/6_pk_anti_1_C01_2.mpt
EC-Lab ASCII FILE
Nb header lines : 56

Cyclic Voltammetry

Run on channel : 1 (SN 0696)
User :
Electrode connection : standard
Ewe ctrl range : min = -2.50 V, max = 2.50 V
Ewe,I filtering : 50 kHz
Safety Limits :
	Do not start on E overload
Channel : Floating
Acquisition started on : 09/12/2016 16:21:12
Saved on :
	File : 6_pk_anti_1_C01.mpr
	Directory : \\userfs\st659\w2k\EC-Lab\Data\Meth_Blue 12-09-16\
	Host : 144.32.136.43
Device : SP-300 (SN 0182)
Address : USB
EC-Lab for windows v10.44 (software)
Internet server v10.44 (firmware)
Command interpretor v10.44 (firmware)
Electrode material :
Initial state :
Electrolyte :
Comments :
Cable : standard
Reference electrode : SCE Saturated Calomel Electrode (0.241 V)
Electrode surface area : 0.001 cm²
Characteristic mass : 0.001 g
Equivalent Weight : 0.000 g/eq.
Density : 0.000 g/cm3
Ei (V)              0.000
vs.                 Eoc
dE/dt               100.000
dE/dt unit          mV/s
E1 (V)              0.100
vs.                 Ref
Step percent        50
N                   10
E range min (V)     -2.500
E range max (V)     2.500
I Range             Auto
I Range min         Unset
I Range max         Unset
I Range init        Unset
Bandwidth           8
E2 (V)              -0.400
vs.                 Ref
nc cycles           2
Reverse Scan        1
Ef (V)              0.000
vs.                 Eoc

mode	ox/red	error	control changes	counter inc.	time/s	control/V	Ewe/V	<I>/mA	cycle number	(Q-Qo)/C	P/W
2	1	0	1	1	9.9898	0.00290831	0.0033808	0.00483246	2	-3.20169e-05	1.63376e-08
2	1	0	0	1	10.0053	0.00445767	0.00493367	0.00479628	2	-3.19425e-05	2.36632e-08
2	1	0	0	1	10.0253	0.00645684	0.0069535	0.00478244	2	-3.18467e-05	3.32547e-08
2	1	0	0	1	10.0453	0.00845602	0.00893752	0.00479357	2	-3.17509e-05	4.28426e-08
2	1	0	0	1	10.0653	0.0104552	0.0109309	0.00477923	2	-3.16552e-05	5.2241e-08
2	1	0	0	1	10.0853	0.0124544	0.0129679	0.00477772	2	-3.15594e-05	6.19568e-08
2	1	0	0	1	10.1053	0.0144535	0.014958	0.004792	2	-3.14637e-05	7.16789e-08
2	1	0	0	1	10.1253	0.0164527	0.016969	0.00478543	2	-3.1368e-05	8.12037e-08
2	1	0	0	1	10.1453	0.0184519	0.0189695	0.00477092	2	-3.12722e-05	9.0502e-08
2	1	0	0	1	10.1653	0.0204511	0.0209603	0.00478035	2	-3.11766e-05	1.00198e-07
2	1	0	0	1	10.1853	0.0224502	0.0229556	0.00477175	2	-3.1081e-05	1.09538e-07
2	1	0	0	1	10.2053	0.0244494	0.0249629	0.00477357	2	-3.09852e-05	1.19162e-07
2	1	0	0	1	10.2253	0.0264486	0.0269511	0.00477518	2	-3.08896e-05	1.28697e-07
2	1	0	0	1	10.2453	0.0284478	0.0289504	0.0047769	2	-3.07938e-05	1.38293e-07
2	1	0	0	1	10.2653	0.0304469	0.0309603	0.00478605	2	-3.06979e-05	1.48178e-07
2	1	0	0	1	10.2853	0.0324461	0.0329479	0.00479313	2	-3.06019e-05	1.57924e-07
2	1	0	0	1	10.3053	0.0344453	0.0349415	0.00479062	2	-3.0506e-05	1.67391e-07
2	1	0	0	1	10.3253	0.0364445	0.0369193	0.00480164	2	-3.041e-05	1.77273e-07
2	1	0	0	1	10.3453	0.0384436	0.0389292	0.00479921	2	-3.03137e-05	1.86829e-07
2	1	0	0	1	10.3653	0.0404428	0.0409393	0.00481844	2	-3.02173e-05	1.97264e-07
2	1	0	0	1	10.3853	0.042442	0.0429267	0.00481757	2	-3.01209e-05	2.06802e-07
2	1	0	0	1	10.4053	0.0444412	0.0449277	0.00482412	2	-3.00242e-05	2.16737e-07
2	1	0	0	1	10.4253	0.0464403	0.0469337	0.00482464	2	-2.99276e-05	2.26438e-07
2	1	0	0	1	10.4452	0.0484372	0.0489149	0.0048621	2	-2.98311e-05	2.37829e-07
2	1	0	1	1	10.4651	0.0504387	0.0509208	0.0048392	2	-2.97344e-05	2.46416e-07
2	1	0	1	1	10.4851	0.0524379	0.0529252	0.00486423	2	-2.96371e-05	2.5744e-07
2	1	0	1	1	10.5051	0.054437	0.0549255	0.00485829	2	-2.95397e-05	2.66844e-07
2	1	0	1	1	10.5251	0.0564362	0.0569214	0.00487393	2	-2.94421e-05	2.77431e-07
2	1	0	1	1	10.5451	0.0584354	0.0589054	0.0048741	2	-2.93445e-05	2.87111e-07
2	1	0	1	1	10.5651	0.0604346	0.060924	0.00489811	2	-2.92465e-05	2.98413e-07
2	1	0	1	1	10.5851	0.0624337	0.0629095	0.00491215	2	-2.91483e-05	3.09021e-07
2	1	0	1	1	10.6051	0.0644329	0.0649221	0.00492582	2	-2.90498e-05	3.19794e-07
2	1	0	1	1	10.6251	0.0664321	0.0669314	0.00492919	2	-2.8951e-05	3.29917e-07
2	1	0	1	1	10.6451	0.0684313	0.0689236	0.00494887	2	-2.88521e-05	3.41094e-07
2	1	0	1	1	10.6651	0.0704305	0.0709299	0.0049709	2	-2.87529e-05	3.52585e-07
2	1	0	1	1	10.6851	0.0724296	0.0729294	0.00498795	2	-2.86534e-05	3.63768e-07
2	1	0	1	1	10.7051	0.0744288	0.0749193	0.00497581	2	-2.85537e-05	3.72784e-07
2	1	0	1	1	10.7251	0.076428	0.0769082	0.00499779	2	-2.84537e-05	3.84371e-07
2	1	0	1	1	10.7451	0.0784272	0.0789092	0.00501687	2	-2.83534e-05	3.95877e-07
2	1	0	1	1	10.7651	0.0804263	0.0809161	0.0050446	2	-2.82527e-05	4.0819e-07
2	1	0	1	1	10.7851	0.0824255	0.0829041	0.00504888	2	-2.81517e-05	4.18573e-07
2	1	0	1	1	10.8051	0.0844247	0.0848977	0.0050537	2	-2.80505e-05	4.29047e-07
2	1	0	1	1	10.8251	0.0864239	0.0869082	0.00509168	2	-2.79488e-05	4.42509e-07
2	1	0	1	1	10.8451	0.088423	0.0889105	0.00509939	2	-2.78467e-05	4.53389e-07
2	1	0	1	1	10.8651	0.0904222	0.0909231	0.00512804	2	-2.77443e-05	4.66257e-07
2	1	0	1	1	10.8851	0.0924214	0.0929077	0.00513391	2	-2.76415e-05	4.7698e-07
2	1	0	1	1	10.9051	0.0944206	0.0949117	0.0051614	2	-2.75383e-05	4.89877e-07
2	1	0	1	1	10.9251	0.0964197	0.0969059	0.00519457	2	-2.74346e-05	5.03384e-07
2	1	0	0	1	10.9449	0.0984189	0.098889	0.00520771	2	-2.73314e-05	5.14985e-07
2	0	0	1	1	10.961	0.0999683	0.100495	0.00512032	2	-2.72474e-05	5.14564e-07
2	0	0	0	1	10.9765	0.0984189	0.0988127	0.00212671	2	-2.72087e-05	2.10146e-07
2	0	0	1	1	10.9963	0.0964197	0.096805	0.00157822	2	-2.71729e-05	1.5278e-07
2	0	0	1	1	11.0163	0.0944206	0.094808	0.00122423	2	-2.71451e-05	1.16066e-07
2	0	0	1	1	11.0363	0.0924214	0.092813	0.000982346	2	-2.71234e-05	9.11744e-08
2	0	0	1	1	11.0563	0.0904222	0.0908099	0.0007665	2	-2.71063e-05	6.96058e-08
2	0	0	1	1	11.0763	0.088423	0.0888102	0.000578534	2	-2.7093e-05	5.13797e-08
2	0	0	1	1	11.0963	0.0864239	0.0868016	0.000445462	2	-2.7083e-05	3.86668e-08
2	0	0	1	1	11.1163	0.0844247	0.0847974	0.000312871	2	-2.70756e-05	2.65306e-08
2	0	0	1	1	11.1363	0.0824255	0.0828183	0.000195809	2	-2.70708e-05	1.62165e-08
2	0	0	1	1	11.1563	0.0804263	0.0808195	7.81594e-05	2	-2.70684e-05	6.3168e-09
2	0	0	1	1	11.1763	0.0784272	0.0788191	-2.09156e-05	2	-2.7068e-05	1.64855e-09
2	0	0	1	1	11.1963	0.076428	0.076837	-0.000112243	2	-2.70693e-05	8.62441e-09
2	0	0	1	1	11.2163	0.0744288	0.0748127	-0.000201023	2	-2.70726e-05	1.50391e-08
2	0	0	1	1	11.2363	0.0724296	0.0728215	-0.000267327	2	-2.70774e-05	1.94671e-08
2	0	0	1	1	11.2563	0.0704305	0.0708199	-0.000347385	2	-2.70838e-05	2.46017e-08
2	0	0	1	1	11.2763	0.0684313	0.068821	-0.000422643	2	-2.70915e-05	2.90867e-08
2	0	0	1	1	11.2963	0.0664321	0.0668173	-0.000475091	2	-2.71007e-05	3.17443e-08
2	0	0	1	1	11.3163	0.0644329	0.0648138	-0.000535878	2	-2.71113e-05	3.47323e-08
2	0	0	1	1	11.3363	0.0624337	0.06282	-0.000601822	2	-2.71228e-05	3.78065e-08
2	0	0	1	1	11.3563	0.0604346	0.0608288	-0.000656114	2	-2.71356e-05	3.99107e-08
2	0	0	1	1	11.3763	0.0584354	0.058823	-0.00068435	2	-2.71493e-05	4.02555e-08
2	0	0	1	1	11.3963	0.0564362	0.0568061	-0.000752412	2	-2.71641e-05	4.27416e-08
2	0	0	1	1	11.4163	0.054437	0.0548208	-0.000806225	2	-2.71799e-05	4.41979e-08
2	0	0	1	1	11.4363	0.0524379	0.0528215	-0.000847402	2	-2.71965e-05	4.47611e-08
2	0	0	1	1	11.4563	0.0504387	0.0508271	-0.000884574	2	-2.72141e-05	4.49604e-08
2	0	0	1	1	11.4762	0.048435	0.0488115	-0.000949052	2	-2.72325e-05	4.63247e-08
2	0	0	0	1	11.4961	0.0464403	0.0468229	-0.000985812	2	-2.72518e-05	4.61585e-08
2	0	0	0	1	11.5161	0.0444412	0.0448278	-0.00100169	2	-2.72718e-05	4.49035e-08
2	0	0	0	1	11.5361	0.042442	0.0428235	-0.00105958	2	-2.72927e-05	4.53748e-08
2	0	0	0	1	11.5561	0.0404428	0.040825	-0.00107948	2	-2.73143e-05	4.40697e-08
2	0	0	0	1	11.5761	0.0384436	0.0388188	-0.00112411	2	-2.73365e-05	4.36366e-08
2	0	0	0	1	11.5961	0.0364445	0.0368341	-0.00115699	2	-2.73594e-05	4.26165e-08
2	0	0	0	1	11.6161	0.0344453	0.0348215	-0.00119757	2	-2.73829e-05	4.17011e-08
2	0	0	0	1	11.6361	0.0324461	0.0328292	-0.00122824	2	-2.74072e-05	4.03223e-08
2	0	0	0	1	11.6561	0.0304469	0.0308274	-0.00124062	2	-2.7432e-05	3.8245e-08
2	0	0	0	1	11.6761	0.0284478	0.0288304	-0.00128061	2	-2.74575e-05	3.69206e-08
2	0	0	0	1	11.6961	0.0264486	0.026836	-0.00130046	2	-2.74836e-05	3.48991e-08
2	0	0	0	1	11.7161	0.0244494	0.0248276	-0.00134694	2	-2.75101e-05	3.34414e-08
2	0	0	0	1	11.7361	0.0224502	0.0228381	-0.00137386	2	-2.75374e-05	3.13764e-08
2	0	0	0	1	11.7561	0.0204511	0.0208399	-0.00139176	2	-2.75651e-05	2.90041e-08
2	0	0	0	1	11.7761	0.0184519	0.0188404	-0.00141068	2	-2.75933e-05	2.65779e-08
2	0	0	0	1	11.7961	0.0164527	0.0168356	-0.00143594	2	-2.76221e-05	2.41749e-08
2	0	0	0	1	11.8161	0.0144535	0.0148381	-0.0014673	2	-2.76514e-05	2.17719e-08
2	0	0	0	1	11.8361	0.0124544	0.0128576	-0.00146814	2	-2.76813e-05	1.88768e-08
2	0	0	0	1	11.8561	0.0104552	0.0108331	-0.00151827	2	-2.77116e-05	1.64477e-08
2	0	0	0	1	11.8761	0.00845602	0.00882878	-0.00155159	2	-2.77425e-05	1.36987e-08
2	0	0	0	1	11.8961	0.00645684	0.00683501	-0.00156181	2	-2.77737e-05	1.0675e-08
2	0	0	0	1	11.9161	0.00445767	0.00484485	-0.00159855	2	-2.78053e-05	7.74476e-09
2	0	0	0	1	11.9361	0.00245849	0.00285003	-0.00161069	2	-2.78376e-05	4.59051e-09
2	0	0	0	1	11.956	0.000467538	0.000839861	-0.00164043	2	-2.78703e-05	1.37774e-09
2	0	0	1	1	11.9759	-0.00153986	-0.00116633	-0.0016667	2	-2.79034e-05	1.94391e-09
2	0	0	1	1	11.9959	-0.00353904	-0.00317875	-0.00167569	2	-2.79372e-05	5.3266e-09
2	0	0	1	1	12.0159	-0.00553821	-0.0051723	-0.00170651	2	-2.79711e-05	8.82661e-09
2	0	0	1	1	12.0359	-0.00753739	-0.00716861	-0.00173739	2	-2.80055e-05	1.24547e-08
2	0	0	1	1	12.0559	-0.00953657	-0.00916619	-0.00175645	2	-2.80405e-05	1.61e-08
2	0	0	1	1	12.0759	-0.0115357	-0.0111716	-0.00177398	2	-2.80758e-05	1.98183e-08
2	0	0	1	1	12.0959	-0.0135349	-0.0131724	-0.00178234	2	-2.81115e-05	2.34776e-08
2	0	0	1	1	12.1159	-0.0155341	-0.015171	-0.00180549	2	-2.81475e-05	2.7391e-08
2	0	0	1	1	12.1359	-0.0175333	-0.017161	-0.00183775	2	-2.81841e-05	3.15376e-08
2	0	0	1	1	12.1559	-0.0195324	-0.0191545	-0.00184832	2	-2.82209e-05	3.54036e-08
2	0	0	1	1	12.1759	-0.0215316	-0.0211457	-0.00187226	2	-2.82582e-05	3.95903e-08
2	0	0	1	1	12.1959	-0.0235308	-0.0231465	-0.00188011	2	-2.82959e-05	4.35179e-08
2	0	0	1	1	12.2159	-0.02553	-0.0251517	-0.00190085	2	-2.8334e-05	4.78097e-08
2	0	0	1	1	12.2359	-0.0275291	-0.0271351	-0.00192864	2	-2.83723e-05	5.23338e-08
2	0	0	1	1	12.2559	-0.0295283	-0.0291503	-0.00194682	2	-2.84113e-05	5.67503e-08
2	0	0	1	1	12.2759	-0.0315275	-0.0311387	-0.00195881	2	-2.84506e-05	6.0995e-08
2	0	0	1	1	12.2959	-0.0335267	-0.0331291	-0.00198535	2	-2.84903e-05	6.57729e-08
2	0	0	1	1	12.3159	-0.0355259	-0.0351413	-0.00199607	2	-2.85304e-05	7.01446e-08
2	0	0	1	1	12.3359	-0.037525	-0.0371493	-0.00203603	2	-2.8571e-05	7.5637e-08
2	0	0	1	1	12.3559	-0.0395242	-0.0391409	-0.00204392	2	-2.86118e-05	8.00008e-08
2	0	0	1	1	12.3759	-0.0415234	-0.0411608	-0.00207248	2	-2.86532e-05	8.53048e-08
2	0	0	1	1	12.3959	-0.0435226	-0.0431634	-0.00208304	2	-2.86947e-05	8.99112e-08
2	0	0	1	1	12.4159	-0.0455217	-0.0451383	-0.00209402	2	-2.87368e-05	9.45203e-08
2	0	0	1	1	12.4359	-0.0475209	-0.0471584	-0.00211677	2	-2.87792e-05	9.98234e-08
2	0	0	0	1	12.4557	-0.0495201	-0.0491384	-0.00214868	2	-2.88218e-05	1.05582e-07
2	0	0	0	1	12.4757	-0.0515193	-0.0511406	-0.0021608	2	-2.88651e-05	1.10504e-07
2	0	0	0	1	12.4957	-0.0535184	-0.0531363	-0.00218629	2	-2.89087e-05	1.16171e-07
2	0	0	0	1	12.5157	-0.0555176	-0.0551122	-0.00220578	2	-2.89527e-05	1.21566e-07
2	0	0	0	1	12.5357	-0.0575168	-0.0571406	-0.00222346	2	-2.8997e-05	1.2705e-07
2	0	0	0	1	12.5557	-0.059516	-0.059139	-0.00223651	2	-2.90419e-05	1.32265e-07
2	0	0	0	1	12.5757	-0.0615152	-0.0611397	-0.00226499	2	-2.9087e-05	1.38481e-07
2	0	0	0	1	12.5957	-0.0635143	-0.0631416	-0.00227887	2	-2.91328e-05	1.43891e-07
2	0	0	0	1	12.6157	-0.0655135	-0.0651377	-0.00230262	2	-2.91787e-05	1.49987e-07
2	0	0	0	1	12.6357	-0.0675127	-0.0671399	-0.00231594	2	-2.92252e-05	1.55492e-07
2	0	0	0	1	12.6557	-0.0695119	-0.06914	-0.00231683	2	-2.92721e-05	1.60185e-07
2	0	0	0	1	12.6757	-0.071511	-0.0711357	-0.00237155	2	-2.93193e-05	1.68702e-07
2	0	0	0	1	12.6957	-0.0735102	-0.0731259	-0.00238591	2	-2.93671e-05	1.74471e-07
2	0	0	0	1	12.7157	-0.0755094	-0.0751444	-0.00239941	2	-2.94151e-05	1.80302e-07
2	0	0	0	1	12.7357	-0.0775086	-0.0771268	-0.00243753	2	-2.94636e-05	1.87999e-07
2	0	0	0	1	12.7557	-0.0795077	-0.0791447	-0.00245379	2	-2.95126e-05	1.94204e-07
2	0	0	0	1	12.7757	-0.0815069	-0.0811221	-0.002477	2	-2.95622e-05	2.0094e-07
2	0	0	0	1	12.7957	-0.0835061	-0.0831214	-0.00249755	2	-2.96122e-05	2.076e-07
2	0	0	0	1	12.8157	-0.0855053	-0.0851272	-0.00253823	2	-2.96626e-05	2.16072e-07
2	0	0	0	1	12.8357	-0.0875044	-0.0871183	-0.00255482	2	-2.97136e-05	2.22572e-07
2	0	0	0	1	12.8557	-0.0895036	-0.089123	-0.00259137	2	-2.97652e-05	2.3095e-07
2	0	0	0	1	12.8757	-0.0915028	-0.0911276	-0.00261226	2	-2.98172e-05	2.38049e-07
2	0	0	0	1	12.8957	-0.093502	-0.0931301	-0.00263702	2	-2.98698e-05	2.45586e-07
2	0	0	0	1	12.9157	-0.0955011	-0.0951073	-0.00265101	2	-2.99229e-05	2.52131e-07
2	0	0	1	1	12.9355	-0.0975003	-0.0971331	-0.00271986	2	-2.99763e-05	2.64188e-07
2	0	0	1	1	12.9555	-0.0994995	-0.0991277	-0.00273345	2	-3.00308e-05	2.70961e-07
2	0	0	1	1	12.9755	-0.101499	-0.101123	-0.00276041	2	-3.0086e-05	2.7914e-07
2	0	0	1	1	12.9955	-0.103498	-0.10314	-0.00279021	2	-3.01417e-05	2.87784e-07
2	0	0	1	1	13.0155	-0.105497	-0.105122	-0.00283288	2	-3.01982e-05	2.97797e-07
2	0	0	1	1	13.0355	-0.107496	-0.107136	-0.00285603	2	-3.02554e-05	3.05983e-07
2	0	0	1	1	13.0555	-0.109495	-0.109142	-0.00290324	2	-3.03132e-05	3.16865e-07
2	0	0	1	1	13.0755	-0.111495	-0.111113	-0.0029379	2	-3.03721e-05	3.26438e-07
2	0	0	1	1	13.0955	-0.113494	-0.113116	-0.0030003	2	-3.04318e-05	3.39381e-07
2	0	0	1	1	13.1155	-0.115493	-0.115127	-0.00304399	2	-3.04924e-05	3.50444e-07
2	0	0	1	1	13.1355	-0.117492	-0.117134	-0.00310814	2	-3.05541e-05	3.64068e-07
2	0	0	1	1	13.1555	-0.119491	-0.119124	-0.00315629	2	-3.06168e-05	3.75991e-07
2	0	0	1	1	13.1755	-0.12149	-0.121142	-0.00320951	2	-3.06807e-05	3.88807e-07
2	0	0	1	1	13.1955	-0.12349	-0.123119	-0.00327295	2	-3.07457e-05	4.02962e-07
2	0	0	1	1	13.2155	-0.125489	-0.125131	-0.00334333	2	-3.08121e-05	4.18354e-07
2	0	0	1	1	13.2355	-0.127488	-0.127121	-0.00341976	2	-3.08799e-05	4.34724e-07
2	0	0	1	1	13.2555	-0.129487	-0.12912	-0.00349676	2	-3.09493e-05	4.51501e-07
2	0	0	1	1	13.2755	-0.131486	-0.131127	-0.00358579	2	-3.10203e-05	4.70196e-07
2	0	0	1	1	13.2955	-0.133485	-0.133107	-0.00367061	2	-3.10929e-05	4.88586e-07
2	0	0	1	1	13.3155	-0.135485	-0.13509	-0.00376684	2	-3.11675e-05	5.08861e-07
2	0	0	1	1	13.3355	-0.137484	-0.137123	-0.00389536	2	-3.12443e-05	5.34143e-07
2	0	0	1	1	13.3555	-0.139483	-0.139122	-0.00401663	2	-3.13234e-05	5.58799e-07
2	0	0	1	1	13.3755	-0.141482	-0.141103	-0.00412122	2	-3.14049e-05	5.81517e-07
2	0	0	1	1	13.3955	-0.143481	-0.143115	-0.00425999	2	-3.1489e-05	6.09668e-07
2	0	0	1	1	13.4154	-0.145478	-0.145124	-0.00444979	2	-3.15754e-05	6.45773e-07
2	0	0	0	1	13.4353	-0.14748	-0.147104	-0.00456512	2	-3.1665e-05	6.71545e-07
2	0	0	0	1	13.4553	-0.149479	-0.149111	-0.00474151	2	-3.17581e-05	7.07013e-07
2	0	0	0	1	13.4753	-0.151478	-0.151091	-0.0048964	2	-3.18547e-05	7.39802e-07
2	0	0	0	1	13.4953	-0.153477	-0.153121	-0.00512094	2	-3.1955e-05	7.84121e-07
2	0	0	0	1	13.5153	-0.155476	-0.155112	-0.00530865	2	-3.20593e-05	8.23434e-07
2	0	0	0	1	13.5353	-0.157476	-0.157117	-0.00551381	2	-3.21678e-05	8.66313e-07
2	0	0	0	1	13.5553	-0.159475	-0.159093	-0.00573672	2	-3.22807e-05	9.12674e-07
2	0	0	0	1	13.5753	-0.161474	-0.1611	-0.00599288	2	-3.23982e-05	9.6545e-07
2	0	0	0	1	13.5953	-0.163473	-0.163107	-0.0062385	2	-3.25207e-05	1.01754e-06
2	0	0	0	1	13.6153	-0.165472	-0.165135	-0.00653124	2	-3.26486e-05	1.07853e-06
2	0	0	0	1	13.6353	-0.167471	-0.167135	-0.00678446	2	-3.27818e-05	1.13392e-06
2	0	0	0	1	13.6553	-0.169471	-0.169126	-0.00708002	2	-3.29208e-05	1.19741e-06
2	0	0	0	1	13.6753	-0.17147	-0.171132	-0.00735561	2	-3.30653e-05	1.25878e-06
2	0	0	0	1	13.6953	-0.173469	-0.173134	-0.00767582	2	-3.32159e-05	1.32894e-06
2	0	0	0	1	13.7153	-0.175468	-0.175131	-0.00797461	2	-3.33725e-05	1.3966e-06
2	0	0	0	1	13.7353	-0.177467	-0.177137	-0.00828067	2	-3.35355e-05	1.46681e-06
2	0	0	0	1	13.7553	-0.179467	-0.179118	-0.00858208	2	-3.37043e-05	1.5372e-06
2	0	0	0	1	13.7753	-0.181466	-0.181122	-0.00889851	2	-3.38795e-05	1.61172e-06
2	0	0	0	1	13.7953	-0.183465	-0.183109	-0.00922217	2	-3.40609e-05	1.68867e-06
2	0	0	0	1	13.8153	-0.185464	-0.18512	-0.00951444	2	-3.42484e-05	1.76132e-06
2	0	0	0	1	13.8353	-0.187463	-0.187124	-0.00981552	2	-3.44419e-05	1.83672e-06
2	0	0	0	1	13.8553	-0.189462	-0.189126	-0.0101101	2	-3.46413e-05	1.91208e-06
2	0	0	0	1	13.9061	-0.19456	-0.194174	-0.0105051	2	-3.51681e-05	2.03982e-06
2	0	0	0	1	13.9261	-0.196559	-0.196191	-0.0107933	2	-3.53865e-05	2.11754e-06
2	0	0	0	1	13.9461	-0.198559	-0.198199	-0.0109994	2	-3.56096e-05	2.18007e-06
2	0	0	0	1	13.9661	-0.200558	-0.200204	-0.0112673	2	-3.58374e-05	2.25576e-06
2	0	0	0	1	13.9861	-0.202557	-0.20218	-0.0114661	2	-3.60696e-05	2.31821e-06
2	0	0	0	1	14.0061	-0.204556	-0.204189	-0.0116164	2	-3.63059e-05	2.37193e-06
2	0	0	0	1	14.0261	-0.206555	-0.206191	-0.0118359	2	-3.65459e-05	2.44045e-06
2	0	0	0	1	14.0461	-0.208555	-0.208198	-0.0120342	2	-3.67894e-05	2.50551e-06
2	0	0	0	1	14.0661	-0.210554	-0.210197	-0.0121552	2	-3.70359e-05	2.55498e-06
2	0	0	0	1	14.0861	-0.212553	-0.212185	-0.0122695	2	-3.72854e-05	2.60341e-06
2	0	0	0	1	14.1061	-0.214552	-0.214191	-0.0124159	2	-3.75375e-05	2.65937e-06
2	0	0	0	1	14.1261	-0.216551	-0.216195	-0.0125399	2	-3.7792e-05	2.71107e-06
2	0	0	0	1	14.1461	-0.21855	-0.218189	-0.0126016	2	-3.80485e-05	2.74953e-06
2	0	0	0	1	14.1661	-0.22055	-0.220193	-0.0127145	2	-3.83071e-05	2.79964e-06
2	0	0	0	1	14.1861	-0.222549	-0.222189	-0.0127731	2	-3.85671e-05	2.83805e-06
2	0	0	0	1	14.2061	-0.224548	-0.224183	-0.012828	2	-3.88284e-05	2.87581e-06
2	0	0	0	1	14.2261	-0.226547	-0.226195	-0.0128958	2	-3.90912e-05	2.91696e-06
2	0	0	0	1	14.2461	-0.228546	-0.228188	-0.0129629	2	-3.93549e-05	2.95798e-06
2	0	0	0	1	14.2661	-0.230546	-0.230179	-0.0129852	2	-3.96193e-05	2.98893e-06
2	0	0	0	1	14.2861	-0.232545	-0.232196	-0.0129879	2	-3.98846e-05	3.01574e-06
2	0	0	0	1	14.3061	-0.234544	-0.234193	-0.0130234	2	-4.01504e-05	3.04998e-06
2	0	0	0	1	14.3261	-0.236543	-0.236187	-0.0130901	2	-4.04166e-05	3.09172e-06
2	0	0	0	1	14.3461	-0.238542	-0.238178	-0.0130773	2	-4.06828e-05	3.11474e-06
2	0	0	0	1	14.3661	-0.240541	-0.240188	-0.0130769	2	-4.09494e-05	3.14093e-06
2	0	0	0	1	14.386	-0.242538	-0.242187	-0.0130888	2	-4.12149e-05	3.16994e-06
2	0	0	1	1	14.4059	-0.24454	-0.244178	-0.0130888	2	-4.14805e-05	3.19601e-06
2	0	0	1	1	14.4259	-0.246539	-0.246192	-0.0130798	2	-4.17472e-05	3.22014e-06
2	0	0	1	1	14.4459	-0.248538	-0.248175	-0.0130563	2	-4.20136e-05	3.24024e-06
2	0	0	1	1	14.4659	-0.250537	-0.250189	-0.0130843	2	-4.22797e-05	3.27353e-06
2	0	0	1	1	14.4859	-0.252536	-0.252173	-0.01302	2	-4.25456e-05	3.28328e-06
2	0	0	1	1	14.5059	-0.254536	-0.254193	-0.0130019	2	-4.28111e-05	3.30499e-06
2	0	0	1	1	14.5259	-0.256535	-0.2562	-0.0130098	2	-4.30762e-05	3.33312e-06
2	0	0	1	1	14.5459	-0.258534	-0.258162	-0.012949	2	-4.33409e-05	3.34294e-06
2	0	0	1	1	14.5659	-0.260533	-0.260176	-0.0129755	2	-4.36052e-05	3.37593e-06
2	0	0	1	1	14.5859	-0.262532	-0.262166	-0.0129161	2	-4.38689e-05	3.38615e-06
2	0	0	1	1	14.6059	-0.264532	-0.264165	-0.0128927	2	-4.41321e-05	3.40579e-06
2	0	0	1	1	14.6259	-0.266531	-0.266178	-0.0128577	2	-4.4395e-05	3.42243e-06
2	0	0	1	1	14.6459	-0.26853	-0.268179	-0.0128514	2	-4.46573e-05	3.44647e-06
2	0	0	1	1	14.6659	-0.270529	-0.270177	-0.0128124	2	-4.49191e-05	3.46163e-06
2	0	0	1	1	14.6859	-0.272528	-0.272175	-0.0127789	2	-4.51804e-05	3.4781e-06
2	0	0	1	1	14.7059	-0.274527	-0.274181	-0.0127538	2	-4.54411e-05	3.49684e-06
2	0	0	1	1	14.7259	-0.276527	-0.276172	-0.0127817	2	-4.57013e-05	3.52995e-06
2	0	0	1	1	14.7459	-0.278526	-0.278189	-0.0127351	2	-4.59612e-05	3.54276e-06
2	0	0	1	1	14.7659	-0.280525	-0.280185	-0.0126694	2	-4.62205e-05	3.54978e-06
2	0	0	1	1	14.7859	-0.282524	-0.282167	-0.0126704	2	-4.64792e-05	3.57518e-06
2	0	0	1	1	14.8059	-0.284523	-0.284172	-0.0126765	2	-4.67376e-05	3.60231e-06
2	0	0	1	1	14.8259	-0.286522	-0.286161	-0.0126345	2	-4.69956e-05	3.6155e-06
2	0	0	1	1	14.8459	-0.288522	-0.288158	-0.0126301	2	-4.72532e-05	3.63948e-06
2	0	0	1	1	14.8659	-0.290521	-0.290174	-0.0126233	2	-4.75104e-05	3.66294e-06
2	0	0	0	1	14.8857	-0.29252	-0.292153	-0.0125835	2	-4.7765e-05	3.67632e-06
2	0	0	0	1	14.9057	-0.294519	-0.294173	-0.0125747	2	-4.80217e-05	3.69912e-06
2	0	0	0	1	14.9257	-0.296518	-0.296159	-0.0125532	2	-4.82781e-05	3.71776e-06
2	0	0	0	1	14.9457	-0.298517	-0.298163	-0.0125485	2	-4.85342e-05	3.74151e-06
2	0	0	0	1	14.9657	-0.300517	-0.30018	-0.0125804	2	-4.879e-05	3.77637e-06
2	0	0	0	1	14.9857	-0.302516	-0.302167	-0.0125385	2	-4.90457e-05	3.78871e-06
2	0	0	0	1	15.0057	-0.304515	-0.304158	-0.012516	2	-4.93012e-05	3.80684e-06
2	0	0	0	1	15.0257	-0.306514	-0.306164	-0.0125337	2	-4.95566e-05	3.83737e-06
2	0	0	0	1	15.0457	-0.308513	-0.308163	-0.0125269	2	-4.98119e-05	3.86032e-06
2	0	0	0	1	15.0657	-0.310513	-0.310167	-0.0125092	2	-5.00672e-05	3.87995e-06
2	0	0	0	1	15.0857	-0.312512	-0.312163	-0.0125171	2	-5.03223e-05	3.90737e-06
2	0	0	0	1	15.1057	-0.314511	-0.314163	-0.0124889	2	-5.05775e-05	3.92356e-06
2	0	0	0	1	15.1257	-0.31651	-0.316155	-0.012513	2	-5.08328e-05	3.95606e-06
2	0	0	0	1	15.1457	-0.318509	-0.318153	-0.0124838	2	-5.10881e-05	3.97177e-06
2	0	0	0	1	15.1657	-0.320508	-0.320172	-0.0125148	2	-5.13436e-05	4.00689e-06
2	0	0	0	1	15.1857	-0.322508	-0.322172	-0.0125524	2	-5.15994e-05	4.04403e-06
2	0	0	0	1	15.2057	-0.324507	-0.324163	-0.0125603	2	-5.18552e-05	4.07158e-06
2	0	0	0	1	15.2257	-0.326506	-0.32616	-0.0125418	2	-5.2111e-05	4.09062e-06
2	0	0	0	1	15.2457	-0.328505	-0.328159	-0.0125899	2	-5.23675e-05	4.1315e-06
2	0	0	0	1	15.2657	-0.330504	-0.330155	-0.0125288	2	-5.2624e-05	4.13646e-06
2	0	0	0	1	15.2857	-0.332503	-0.33214	-0.0125941	2	-5.28808e-05	4.18301e-06
2	0	0	0	1	15.3057	-0.334503	-0.334143	-0.0126059	2	-5.3138e-05	4.21219e-06
2	0	0	0	1	15.3257	-0.336502	-0.336159	-0.0126757	2	-5.33956e-05	4.26104e-06
2	0	0	0	1	15.3457	-0.338501	-0.338129	-0.0126375	2	-5.36536e-05	4.2731e-06
2	0	0	1	1	15.3655	-0.3405	-0.340138	-0.0126931	2	-5.39099e-05	4.31741e-06
2	0	0	1	1	15.3855	-0.342499	-0.342133	-0.0127235	2	-5.41692e-05	4.35312e-06
2	0	0	1	1	15.4055	-0.344499	-0.344143	-0.0127646	2	-5.4429e-05	4.39284e-06
2	0	0	1	1	15.4255	-0.346498	-0.346153	-0.0128091	2	-5.46894e-05	4.43392e-06
2	0	0	1	1	15.4455	-0.348497	-0.348148	-0.0128277	2	-5.49504e-05	4.46593e-06
2	0	0	1	1	15.4655	-0.350496	-0.350154	-0.0128576	2	-5.5212e-05	4.50215e-06
2	0	0	1	1	15.4855	-0.352495	-0.352143	-0.0128963	2	-5.54744e-05	4.54133e-06
2	0	0	1	1	15.5055	-0.354494	-0.354152	-0.0129132	2	-5.57375e-05	4.57323e-06
2	0	0	1	1	15.5255	-0.356494	-0.356138	-0.0129659	2	-5.60013e-05	4.61766e-06
2	0	0	1	1	15.5455	-0.358493	-0.358134	-0.0129877	2	-5.6266e-05	4.65134e-06
2	0	0	1	1	15.5655	-0.360492	-0.360136	-0.0130576	2	-5.65315e-05	4.7025e-06
2	0	0	1	1	15.5855	-0.362491	-0.362144	-0.0131115	2	-5.67979e-05	4.74827e-06
2	0	0	1	1	15.6055	-0.36449	-0.364138	-0.0131687	2	-5.70653e-05	4.79524e-06
2	0	0	1	1	15.6255	-0.366489	-0.366123	-0.0131789	2	-5.73336e-05	4.8251e-06
2	0	0	1	1	15.6455	-0.368489	-0.368124	-0.0132179	2	-5.76029e-05	4.86581e-06
2	0	0	1	1	15.6655	-0.370488	-0.370135	-0.0133022	2	-5.78735e-05	4.92361e-06
2	0	0	1	1	15.6855	-0.372487	-0.372139	-0.0133654	2	-5.8145e-05	4.97378e-06
2	0	0	1	1	15.7055	-0.374486	-0.374141	-0.0133991	2	-5.84177e-05	5.01315e-06
2	0	0	1	1	15.7255	-0.376485	-0.376119	-0.0134731	2	-5.86915e-05	5.06748e-06
2	0	0	1	1	15.7455	-0.378485	-0.378114	-0.0135347	2	-5.89664e-05	5.11766e-06
2	0	0	1	1	15.7655	-0.380484	-0.380128	-0.0136047	2	-5.92427e-05	5.17151e-06
2	0	0	1	1	15.7855	-0.382483	-0.382124	-0.0136383	2	-5.95201e-05	5.21151e-06
2	0	0	1	1	15.8055	-0.384482	-0.384131	-0.0137645	2	-5.97988e-05	5.28739e-06
2	0	0	1	1	15.8255	-0.386481	-0.38611	-0.0138051	2	-6.0079e-05	5.3303e-06
2	0	0	1	1	15.8454	-0.388487	-0.388124	-0.0139348	2	-6.03592e-05	5.40843e-06
2	0	0	0	1	15.8653	-0.39048	-0.390111	-0.0138864	2	-6.06409e-05	5.41724e-06
2	0	0	0	1	15.8853	-0.392479	-0.392114	-0.0140095	2	-6.09253e-05	5.49333e-06
2	0	0	0	1	15.9053	-0.394478	-0.394105	-0.0140681	2	-6.12113e-05	5.54432e-06
2	0	0	0	1	15.9253	-0.396477	-0.396103	-0.0141576	2	-6.1499e-05	5.60786e-06
2	0	0	0	1	15.9453	-0.398476	-0.398104	-0.0142684	2	-6.17881e-05	5.6803e-06
2	1	0	0	0	15.9604	-0.400026	-0.399626	-0.0149431	2	-6.20074e-05	5.97164e-06
2	1	0	1	0	15.9759	-0.398476	-0.398055	-0.011148	2	-6.21858e-05	4.43752e-06
2	1	0	1	0	15.9959	-0.396477	-0.396072	-0.0104514	2	-6.23965e-05	4.1395e-06
2	1	0	1	0	16.0159	-0.394478	-0.394049	-0.00992592	2	-6.25951e-05	3.9113e-06
2	1	0	1	0	16.0359	-0.392479	-0.392071	-0.00958353	2	-6.2785e-05	3.75742e-06
2	1	0	1	0	16.0559	-0.39048	-0.390042	-0.00922581	2	-6.29677e-05	3.59845e-06
2	1	0	1	0	16.0758	-0.388485	-0.388062	-0.00891394	2	-6.31432e-05	3.45916e-06
2	1	0	0	0	16.0957	-0.386481	-0.386067	-0.0086496	2	-6.33128e-05	3.33932e-06
2	1	0	0	0	16.1157	-0.384482	-0.38406	-0.00841541	2	-6.34781e-05	3.23202e-06
2	1	0	0	0	16.1357	-0.382483	-0.38207	-0.00816808	2	-6.36387e-05	3.12078e-06
2	1	0	0	0	16.1557	-0.380484	-0.380069	-0.00791476	2	-6.37947e-05	3.00815e-06
2	1	0	0	0	16.1757	-0.378485	-0.378064	-0.00770706	2	-6.3946e-05	2.91376e-06
2	1	0	0	0	16.1957	-0.376485	-0.376063	-0.00751751	2	-6.40934e-05	2.82706e-06
2	1	0	0	0	16.2157	-0.374486	-0.374073	-0.00733181	2	-6.42368e-05	2.74264e-06
2	1	0	0	0	16.2357	-0.372487	-0.372081	-0.00712243	2	-6.43763e-05	2.65012e-06
2	1	0	0	0	16.2557	-0.370488	-0.370068	-0.00696708	2	-6.4512e-05	2.57829e-06
2	1	0	0	0	16.2757	-0.368489	-0.368069	-0.00677019	2	-6.46443e-05	2.4919e-06
2	1	0	0	0	16.2957	-0.366489	-0.366062	-0.00661294	2	-6.47729e-05	2.42075e-06
2	1	0	0	0	16.3157	-0.36449	-0.364084	-0.00643105	2	-6.48983e-05	2.34145e-06
2	1	0	0	0	16.3357	-0.362491	-0.362073	-0.00626033	2	-6.50206e-05	2.2667e-06
2	1	0	0	0	16.3557	-0.360492	-0.360073	-0.00611389	2	-6.51396e-05	2.20145e-06
2	1	0	0	0	16.3757	-0.358493	-0.358085	-0.00598908	2	-6.52556e-05	2.1446e-06
2	1	0	0	0	16.3957	-0.356494	-0.35609	-0.00583607	2	-6.53686e-05	2.07816e-06
2	1	0	0	0	16.4157	-0.354494	-0.354076	-0.00568505	2	-6.54787e-05	2.01294e-06
2	1	0	0	0	16.4357	-0.352495	-0.352081	-0.00554767	2	-6.55858e-05	1.95323e-06
2	1	0	0	0	16.4557	-0.350496	-0.350084	-0.00539543	2	-6.56904e-05	1.88885e-06
2	1	0	0	0	16.4757	-0.348497	-0.348079	-0.00528973	2	-6.57921e-05	1.84124e-06
2	1	0	0	0	16.4957	-0.346498	-0.346083	-0.00514129	2	-6.58911e-05	1.77931e-06
2	1	0	0	0	16.5157	-0.344499	-0.344099	-0.00501575	2	-6.59877e-05	1.72591e-06
2	1	0	0	0	16.5357	-0.342499	-0.342101	-0.00490654	2	-6.60815e-05	1.67853e-06
2	1	0	0	0	16.5557	-0.3405	-0.34008	-0.00475295	2	-6.61729e-05	1.61638e-06
2	1	0	1	0	16.5755	-0.338501	-0.338062	-0.00464589	2	-6.62606e-05	1.5706e-06
2	1	0	1	0	16.5955	-0.336502	-0.336083	-0.00454505	2	-6.63473e-05	1.52751e-06
2	1	0	0	0	16.6465	-0.331404	-0.330995	-0.00400594	2	-6.65519e-05	1.32595e-06
2	1	0	0	0	16.6665	-0.329405	-0.328983	-0.00389765	2	-6.66308e-05	1.28226e-06
2	1	0	0	0	16.6865	-0.327406	-0.326974	-0.00379035	2	-6.67074e-05	1.23935e-06
2	1	0	0	0	16.7065	-0.325406	-0.324993	-0.00369611	2	-6.67821e-05	1.20121e-06
2	1	0	0	0	16.7265	-0.323407	-0.323	-0.00358305	2	-6.68544e-05	1.15733e-06
2	1	0	0	0	16.7465	-0.321408	-0.320998	-0.00345078	2	-6.69247e-05	1.10769e-06
2	1	0	0	0	16.7665	-0.319409	-0.318999	-0.00336724	2	-6.69929e-05	1.07415e-06
2	1	0	0	0	16.7865	-0.31741	-0.316994	-0.00327636	2	-6.70588e-05	1.03859e-06
2	1	0	0	0	16.8065	-0.315411	-0.314985	-0.0031614	2	-6.71228e-05	9.95791e-07
2	1	0	0	0	16.8265	-0.313411	-0.312991	-0.00305771	2	-6.71848e-05	9.57035e-07
2	1	0	0	0	16.8465	-0.311412	-0.310998	-0.00296117	2	-6.72448e-05	9.2092e-07
2	1	0	0	0	16.8665	-0.309413	-0.309003	-0.00286063	2	-6.7303e-05	8.83943e-07
2	1	0	0	0	16.8865	-0.307414	-0.307013	-0.00277015	2	-6.7359e-05	8.5047e-07
2	1	0	0	0	16.9065	-0.305415	-0.305006	-0.00266287	2	-6.74131e-05	8.12191e-07
2	1	0	0	0	16.9265	-0.303415	-0.302981	-0.00255821	2	-6.74651e-05	7.75089e-07
2	1	0	0	0	16.9465	-0.301416	-0.300989	-0.00247564	2	-6.75155e-05	7.45142e-07
2	1	0	0	0	16.9665	-0.299417	-0.298997	-0.00238842	2	-6.75639e-05	7.14128e-07
2	1	0	0	0	16.9865	-0.297418	-0.296995	-0.0022868	2	-6.76104e-05	6.79168e-07
2	1	0	0	0	17.0065	-0.295419	-0.295003	-0.00219703	2	-6.76551e-05	6.4813e-07
2	1	0	0	0	17.0265	-0.29342	-0.292989	-0.00208334	2	-6.76978e-05	6.10396e-07
2	1	0	0	0	17.0464	-0.291425	-0.290994	-0.00198638	2	-6.77384e-05	5.78026e-07
2	1	0	1	0	17.0663	-0.289421	-0.288977	-0.00190434	2	-6.7777e-05	5.5031e-07
2	1	0	1	0	17.0863	-0.287422	-0.287004	-0.00182829	2	-6.78142e-05	5.24727e-07
2	1	0	1	0	17.1063	-0.285423	-0.284984	-0.00173277	2	-6.78496e-05	4.93812e-07
2	1	0	1	0	17.1263	-0.283424	-0.282987	-0.00163824	2	-6.7883e-05	4.636e-07
2	1	0	1	0	17.1463	-0.281425	-0.280989	-0.00154612	2	-6.79147e-05	4.34443e-07
2	1	0	1	0	17.1663	-0.279425	-0.278988	-0.00144902	2	-6.79446e-05	4.04259e-07
2	1	0	1	0	17.1863	-0.277426	-0.277009	-0.00135581	2	-6.79726e-05	3.75573e-07
2	1	0	1	0	17.2063	-0.275427	-0.274995	-0.00125843	2	-6.79984e-05	3.46061e-07
2	1	0	1	0	17.2263	-0.273428	-0.272988	-0.0011634	2	-6.80225e-05	3.17595e-07
2	1	0	1	0	17.2463	-0.271429	-0.271002	-0.00105919	2	-6.80447e-05	2.87043e-07
2	1	0	1	0	17.2663	-0.269429	-0.268988	-0.00096778	2	-6.80647e-05	2.60321e-07
2	1	0	1	0	17.2863	-0.26743	-0.266986	-0.000856538	2	-6.80828e-05	2.28684e-07
2	1	0	1	0	17.3063	-0.265431	-0.265003	-0.000761668	2	-6.80987e-05	2.01844e-07
2	1	0	1	0	17.3263	-0.263432	-0.262987	-0.000648792	2	-6.81127e-05	1.70624e-07
2	1	0	1	0	17.3463	-0.261433	-0.260989	-0.000562716	2	-6.81245e-05	1.46862e-07
2	1	0	1	0	17.3663	-0.259434	-0.258994	-0.000438556	2	-6.81341e-05	1.13584e-07
2	1	0	1	0	17.3863	-0.257434	-0.256992	-0.000316118	2	-6.81416e-05	8.12396e-08
2	1	0	1	0	17.4063	-0.255435	-0.255009	-0.00020631	2	-6.81467e-05	5.2611e-08
2	1	0	1	0	17.4263	-0.253436	-0.253005	-8.6042e-05	2	-6.81494e-05	2.1769e-08
2	1	0	1	0	17.4463	-0.251437	-0.251015	6.5594e-05	2	-6.81495e-05	1.64651e-08
2	1	0	1	0	17.4663	-0.249438	-0.249016	0.00016806	2	-6.81471e-05	4.18496e-08
2	1	0	1	0	17.4863	-0.247439	-0.247012	0.000319934	2	-6.81419e-05	7.90274e-08
2	1	0	1	0	17.5063	-0.245439	-0.244996	0.000453836	2	-6.8134e-05	1.11188e-07
2	1	0	1	0	17.5263	-0.24344	-0.243004	0.000601277	2	-6.81231e-05	1.46113e-07
2	1	0	0	0	17.5461	-0.241441	-0.241009	0.000777073	2	-6.8109e-05	1.87281e-07
2	1	0	0	0	17.5661	-0.239442	-0.239007	0.000936734	2	-6.80918e-05	2.23886e-07
2	1	0	0	0	17.5861	-0.237443	-0.236998	0.00109417	2	-6.80713e-05	2.59317e-07
2	1	0	0	0	17.6061	-0.235443	-0.235001	0.00126475	2	-6.80474e-05	2.97217e-07
2	1	0	0	0	17.6261	-0.233444	-0.233016	0.00146207	2	-6.80198e-05	3.40688e-07
2	1	0	0	0	17.6461	-0.231445	-0.231012	0.00166181	2	-6.79884e-05	3.83898e-07
2	1	0	0	0	17.6661	-0.229446	-0.229008	0.0018684	2	-6.7953e-05	4.27878e-07
2	1	0	0	0	17.6861	-0.227447	-0.227006	0.00208457	2	-6.79133e-05	4.7321e-07
2	1	0	0	0	17.7061	-0.225448	-0.225007	0.00231946	2	-6.78691e-05	5.21896e-07
2	1	0	0	0	17.7261	-0.223448	-0.223028	0.00256299	2	-6.78203e-05	5.7162e-07
2	1	0	0	0	17.7461	-0.221449	-0.221013	0.00281383	2	-6.77666e-05	6.21892e-07
2	1	0	0	0	17.7661	-0.21945	-0.219022	0.00306764	2	-6.77076e-05	6.71883e-07
2	1	0	0	0	17.7861	-0.217451	-0.217022	0.00333594	2	-6.76433e-05	7.23972e-07
2	1	0	0	0	17.8061	-0.215452	-0.215006	0.00363978	2	-6.75733e-05	7.82573e-07
2	1	0	0	0	17.8261	-0.213453	-0.213017	0.0039114	2	-6.74975e-05	8.33195e-07
2	1	0	0	0	17.8461	-0.211453	-0.211003	0.00423606	2	-6.74156e-05	8.93823e-07
2	1	0	0	0	17.8661	-0.209454	-0.209003	0.00455356	2	-6.73276e-05	9.51708e-07
2	1	0	0	0	17.8861	-0.207455	-0.207004	0.00487492	2	-6.72331e-05	1.00913e-06
2	1	0	0	0	17.9061	-0.205456	-0.205005	0.00520282	2	-6.71319e-05	1.0666e-06
2	1	0	0	0	17.9261	-0.203457	-0.202994	0.00557227	2	-6.70239e-05	1.13114e-06
2	1	0	0	0	17.9461	-0.201457	-0.200996	0.00589826	2	-6.69091e-05	1.18553e-06
2	1	0	0	0	17.9661	-0.199458	-0.199011	0.00624959	2	-6.67874e-05	1.24374e-06
2	1	0	0	0	17.9861	-0.197459	-0.196995	0.00658672	2	-6.66588e-05	1.29755e-06
2	1	0	0	0	18.0061	-0.19546	-0.194995	0.00693107	2	-6.65232e-05	1.35153e-06
2	1	0	1	0	18.0259	-0.193461	-0.192992	0.00729731	2	-6.6382e-05	1.40832e-06
2	1	0	1	0	18.0459	-0.191462	-0.190987	0.00762055	2	-6.62327e-05	1.45542e-06
2	1	0	1	0	18.0659	-0.189462	-0.188998	0.00793016	2	-6.60769e-05	1.49879e-06
2	1	0	1	0	18.0859	-0.187463	-0.186982	0.00825146	2	-6.59147e-05	1.54288e-06
2	1	0	1	0	18.1059	-0.185464	-0.18498	0.00852817	2	-6.57467e-05	1.57754e-06
2	1	0	1	0	18.1259	-0.183465	-0.182978	0.0088174	2	-6.55731e-05	1.61339e-06
2	1	0	1	0	18.1459	-0.181466	-0.180987	0.00906827	2	-6.53943e-05	1.64123e-06
2	1	0	1	0	18.1659	-0.179467	-0.178976	0.00927987	2	-6.52106e-05	1.66087e-06
2	1	0	1	0	18.1859	-0.177467	-0.176971	0.00949362	2	-6.50227e-05	1.68009e-06
2	1	0	1	0	18.2059	-0.175468	-0.174976	0.00967169	2	-6.48309e-05	1.69231e-06
2	1	0	1	0	18.2259	-0.173469	-0.172966	0.00981149	2	-6.46358e-05	1.69706e-06
2	1	0	1	0	18.2459	-0.17147	-0.170974	0.00991856	2	-6.44381e-05	1.69582e-06
2	1	0	1	0	18.2659	-0.169471	-0.168988	0.0100276	2	-6.42383e-05	1.69454e-06
2	1	0	1	0	18.2859	-0.167471	-0.166986	0.0101077	2	-6.40367e-05	1.68784e-06
2	1	0	1	0	18.3059	-0.165472	-0.164995	0.0101481	2	-6.3834e-05	1.67439e-06
2	1	0	1	0	18.3259	-0.163473	-0.162951	0.0101558	2	-6.36307e-05	1.6549e-06
2	1	0	1	0	18.3459	-0.161474	-0.160957	0.0101637	2	-6.34273e-05	1.63592e-06
2	1	0	1	0	18.3659	-0.159475	-0.158968	0.0101193	2	-6.32245e-05	1.60865e-06
2	1	0	1	0	18.3859	-0.157476	-0.156962	0.0100464	2	-6.30226e-05	1.57691e-06
2	1	0	1	0	18.4059	-0.155476	-0.15497	0.00998708	2	-6.28219e-05	1.5477e-06
2	1	0	1	0	18.4259	-0.153477	-0.152984	0.00989366	2	-6.26228e-05	1.51357e-06
2	1	0	1	0	18.4459	-0.151478	-0.150974	0.00981411	2	-6.24258e-05	1.48167e-06
2	1	0	1	0	18.4659	-0.149479	-0.148972	0.0096917	2	-6.22308e-05	1.44379e-06
2	1	0	1	0	18.4859	-0.14748	-0.146974	0.00954964	2	-6.2038e-05	1.40355e-06
2	1	0	1	0	18.5058	-0.145476	-0.144972	0.00944781	2	-6.1849e-05	1.36966e-06
2	1	0	0	0	18.5257	-0.143481	-0.142971	0.00928648	2	-6.16624e-05	1.3277e-06
2	1	0	0	0	18.5457	-0.141482	-0.140967	0.00915131	2	-6.14778e-05	1.29003e-06
2	1	0	0	0	18.5657	-0.139483	-0.13899	0.00900994	2	-6.12962e-05	1.25229e-06
2	1	0	0	0	18.5857	-0.137484	-0.136974	0.00885578	2	-6.11174e-05	1.21301e-06
2	1	0	0	0	18.6057	-0.135485	-0.134968	0.00869393	2	-6.09417e-05	1.17341e-06
2	1	0	0	0	18.6257	-0.133485	-0.132978	0.0085524	2	-6.07691e-05	1.13728e-06
2	1	0	0	0	18.6457	-0.131486	-0.130991	0.00840404	2	-6.05994e-05	1.10085e-06
2	1	0	0	0	18.6657	-0.129487	-0.128996	0.00825788	2	-6.04328e-05	1.06524e-06
2	1	0	0	0	18.6857	-0.127488	-0.126974	0.00811556	2	-6.02689e-05	1.03046e-06
2	1	0	0	0	18.7057	-0.125489	-0.12498	0.00796745	2	-6.0108e-05	9.95769e-07
2	1	0	0	0	18.7257	-0.12349	-0.122985	0.00784829	2	-5.99496e-05	9.65222e-07
2	1	0	0	0	18.7457	-0.12149	-0.120995	0.0076991	2	-5.97941e-05	9.31553e-07
2	1	0	0	0	18.7657	-0.119491	-0.119002	0.00758809	2	-5.96411e-05	9.02995e-07
2	1	0	0	0	18.7857	-0.117492	-0.117003	0.00746134	2	-5.94907e-05	8.73001e-07
2	1	0	0	0	18.8057	-0.115493	-0.114989	0.0073399	2	-5.93426e-05	8.44004e-07
2	1	0	0	0	18.8257	-0.113494	-0.112993	0.00723526	2	-5.91968e-05	8.17535e-07
2	1	0	0	0	18.8457	-0.111495	-0.111017	0.00711982	2	-5.90534e-05	7.90419e-07
2	1	0	0	0	18.8657	-0.109495	-0.108996	0.00699743	2	-5.89119e-05	7.62694e-07
2	1	0	0	0	18.8857	-0.107496	-0.106997	0.00690034	2	-5.87726e-05	7.38314e-07
2	1	0	0	0	18.9057	-0.105497	-0.105	0.00680236	2	-5.86354e-05	7.14249e-07
2	1	0	0	0	18.9257	-0.103498	-0.103011	0.00671888	2	-5.85e-05	6.92119e-07
2	1	0	0	0	18.9457	-0.101499	-0.101009	0.00663117	2	-5.83665e-05	6.6981e-07
2	1	0	0	0	18.9657	-0.0994995	-0.0989978	0.00653816	2	-5.82346e-05	6.47263e-07
2	1	0	0	0	18.9856	-0.0975094	-0.0970067	0.00647141	2	-5.8105e-05	6.27771e-07
2	1	0	1	0	19.0055	-0.0955011	-0.0949886	0.00639599	2	-5.79767e-05	6.07546e-07
2	1	0	1	0	19.0255	-0.093502	-0.0930141	0.00630253	2	-5.78497e-05	5.86225e-07
2	1	0	1	0	19.0455	-0.0915028	-0.0910089	0.00624374	2	-5.7724e-05	5.68236e-07
2	1	0	1	0	19.0655	-0.0895036	-0.0889872	0.00617259	2	-5.75998e-05	5.49281e-07
2	1	0	1	0	19.0855	-0.0875044	-0.0869849	0.00611008	2	-5.74767e-05	5.31484e-07
2	1	0	1	0	19.1055	-0.0855053	-0.0849933	0.00603423	2	-5.7355e-05	5.12869e-07
2	1	0	1	0	19.1255	-0.0835061	-0.083001	0.00597814	2	-5.72345e-05	4.96192e-07
2	1	0	1	0	19.1455	-0.0815069	-0.0810096	0.00592647	2	-5.71152e-05	4.801e-07
2	1	0	1	0	19.1655	-0.0795077	-0.0789908	0.0058641	2	-5.6997e-05	4.6321e-07
2	1	0	1	0	19.1855	-0.0775086	-0.0770013	0.00581763	2	-5.68798e-05	4.47965e-07
2	1	0	1	0	19.2055	-0.0755094	-0.0750238	0.00577439	2	-5.67637e-05	4.33217e-07
2	1	0	1	0	19.2255	-0.0735102	-0.0730139	0.00573689	2	-5.66485e-05	4.18873e-07
2	1	0	1	0	19.2455	-0.071511	-0.0710102	0.00568099	2	-5.65341e-05	4.03409e-07
2	1	0	1	0	19.2655	-0.0695119	-0.0690224	0.00564789	2	-5.64207e-05	3.89831e-07
2	1	0	1	0	19.2855	-0.0675127	-0.0670278	0.00559911	2	-5.6308e-05	3.75296e-07
2	1	0	1	0	19.3055	-0.0655135	-0.0650204	0.00556958	2	-5.61962e-05	3.62137e-07
2	1	0	1	0	19.3255	-0.0635143	-0.0630214	0.00552591	2	-5.60851e-05	3.48251e-07
2	1	0	1	0	19.3455	-0.0615151	-0.0610198	0.00548648	2	-5.59746e-05	3.34784e-07
2	1	0	1	0	19.3655	-0.059516	-0.0590144	0.00546341	2	-5.58648e-05	3.2242e-07
2	1	0	1	0	19.3855	-0.0575168	-0.0570038	0.00542819	2	-5.57557e-05	3.09428e-07
2	1	0	1	0	19.4055	-0.0555176	-0.0550166	0.00539216	2	-5.56473e-05	2.96659e-07
2	1	0	1	0	19.4255	-0.0535184	-0.0530227	0.0053613	2	-5.55395e-05	2.84271e-07
2	1	0	1	0	19.4455	-0.0515193	-0.0510225	0.0053543	2	-5.54321e-05	2.7319e-07
2	1	0	1	0	19.4655	-0.0495201	-0.0490265	0.00532327	2	-5.53253e-05	2.60981e-07
2	1	0	0	0	19.4853	-0.0475209	-0.0470225	0.00530841	2	-5.52198e-05	2.49615e-07
2	1	0	0	0	19.5053	-0.0455217	-0.045029	0.00527611	2	-5.51139e-05	2.37578e-07
2	1	0	0	0	19.5253	-0.0435226	-0.0430244	0.00525214	2	-5.50085e-05	2.2597e-07
2	1	0	0	0	19.5453	-0.0415234	-0.0410435	0.00522686	2	-5.49036e-05	2.14529e-07
2	1	0	0	0	19.5653	-0.0395242	-0.0390375	0.0052198	2	-5.4799e-05	2.03768e-07
2	1	0	0	0	19.5853	-0.037525	-0.0370433	0.00519801	2	-5.46948e-05	1.92551e-07
2	1	0	0	0	19.6053	-0.0355259	-0.0350461	0.00516708	2	-5.45909e-05	1.81086e-07
2	1	0	0	0	19.6253	-0.0335267	-0.0330441	0.00516836	2	-5.44874e-05	1.70784e-07
2	1	0	0	0	19.6453	-0.0315275	-0.0310423	0.00513278	2	-5.43844e-05	1.59333e-07
2	1	0	0	0	19.6653	-0.0295283	-0.0290341	0.00511459	2	-5.42816e-05	1.48498e-07
2	1	0	0	0	19.6853	-0.0275292	-0.0270293	0.0051168	2	-5.4179e-05	1.38304e-07
2	1	0	0	0	19.7053	-0.02553	-0.0250379	0.00510274	2	-5.40768e-05	1.27762e-07
2	1	0	0	0	19.7253	-0.0235308	-0.0230367	0.00508912	2	-5.39748e-05	1.17237e-07
2	1	0	0	0	19.7453	-0.0215316	-0.0210455	0.00507503	2	-5.38731e-05	1.06806e-07
2	1	0	0	0	19.7653	-0.0195324	-0.0190481	0.00505521	2	-5.37715e-05	9.62922e-08
2	1	0	0	0	19.7853	-0.0175333	-0.017052	0.00504809	2	-5.36703e-05	8.60801e-08
2	1	0	0	0	19.8053	-0.0155341	-0.0150481	0.00505066	2	-5.35692e-05	7.60027e-08
2	1	0	0	0	19.8253	-0.0135349	-0.0130626	0.00502912	2	-5.34682e-05	6.56932e-08
2	1	0	0	0	19.8453	-0.0115357	-0.0110451	0.00504239	2	-5.33673e-05	5.56936e-08
2	1	0	0	0	19.8653	-0.00953657	-0.00906169	0.00502252	2	-5.32666e-05	4.55125e-08
2	1	0	0	0	19.8853	-0.00753739	-0.00704122	0.00501446	2	-5.3166e-05	3.53079e-08
2	1	0	0	0	19.9053	-0.00553821	-0.00506102	0.0050057	2	-5.30656e-05	2.53339e-08
2	1	0	0	0	19.9253	-0.00353904	-0.00305835	0.00500124	2	-5.29653e-05	1.52955e-08
2	1	0	0	0	19.9453	-0.00153986	-0.00106225	0.0049976	2	-5.2865e-05	5.30871e-09
2	1	0	1	0	19.9621	0.000159438	0.000629884	0.00509336	2	-5.27808e-05	3.20823e-09