File: TAP_Report/Data/MB_Suscept/6_pk_noanti_2_C01_2.mpt
EC-Lab ASCII FILE
Nb header lines : 56

Cyclic Voltammetry

Run on channel : 1 (SN 0696)
User :
Electrode connection : standard
Ewe ctrl range : min = -2.50 V, max = 2.50 V
Ewe,I filtering : 50 kHz
Safety Limits :
	Do not start on E overload
Channel : Floating
Acquisition started on : 09/12/2016 16:29:14
Saved on :
	File : 6_pk_noanti_2_C01.mpr
	Directory : \\userfs\st659\w2k\EC-Lab\Data\Meth_Blue 12-09-16\
	Host : 144.32.136.43
Device : SP-300 (SN 0182)
Address : USB
EC-Lab for windows v10.44 (software)
Internet server v10.44 (firmware)
Command interpretor v10.44 (firmware)
Electrode material :
Initial state :
Electrolyte :
Comments :
Cable : standard
Reference electrode : SCE Saturated Calomel Electrode (0.241 V)
Electrode surface area : 0.001 cm²
Characteristic mass : 0.001 g
Equivalent Weight : 0.000 g/eq.
Density : 0.000 g/cm3
Ei (V)              0.000
vs.                 Eoc
dE/dt               100.000
dE/dt unit          mV/s
E1 (V)              0.100
vs.                 Ref
Step percent        50
N                   10
E range min (V)     -2.500
E range max (V)     2.500
I Range             Auto
I Range min         Unset
I Range max         Unset
I Range init        Unset
Bandwidth           8
E2 (V)              -0.400
vs.                 Ref
nc cycles           2
Reverse Scan        1
Ef (V)              0.000
vs.                 Eoc

mode	ox/red	error	control changes	counter inc.	time/s	control/V	Ewe/V	<I>/mA	cycle number	(Q-Qo)/C	P/W
2	1	0	1	1	9.965	-0.0341866	-0.0337162	0.00477013	2	-2.82626e-05	1.60831e-07
2	1	0	0	1	9.9805	-0.0326373	-0.0321485	0.00480667	2	-2.81848e-05	1.54527e-07
2	1	0	0	1	10.0005	-0.0306381	-0.0301564	0.00474846	2	-2.80851e-05	1.43197e-07
2	1	0	0	1	10.0205	-0.0286389	-0.0281512	0.00470743	2	-2.79857e-05	1.3252e-07
2	1	0	0	1	10.0405	-0.0266397	-0.0261594	0.00471402	2	-2.78867e-05	1.23316e-07
2	1	0	0	1	10.0605	-0.0246405	-0.0241666	0.00474565	2	-2.77881e-05	1.14686e-07
2	1	0	0	1	10.0805	-0.0226413	-0.0221682	0.0046204	2	-2.76897e-05	1.02426e-07
2	1	0	0	1	10.1005	-0.0206421	-0.0201698	0.00464745	2	-2.75917e-05	9.37381e-08
2	1	0	0	1	10.1205	-0.0186429	-0.018186	0.00462613	2	-2.74938e-05	8.41307e-08
2	1	0	0	1	10.1405	-0.0166438	-0.0161859	0.00463053	2	-2.73963e-05	7.49492e-08
2	1	0	0	1	10.1605	-0.0146446	-0.0141821	0.00460849	2	-2.72989e-05	6.53582e-08
2	1	0	0	1	10.1805	-0.0126454	-0.0121858	0.00460872	2	-2.72019e-05	5.6161e-08
2	1	0	0	1	10.2005	-0.0106462	-0.0101789	0.00459138	2	-2.71047e-05	4.67352e-08
2	1	0	0	1	10.2205	-0.00864702	-0.00817879	0.00459916	2	-2.7008e-05	3.76156e-08
2	1	0	0	1	10.2405	-0.00664783	-0.00617867	0.00458698	2	-2.69113e-05	2.83414e-08
2	1	0	0	1	10.2755	-0.00314926	-0.00270799	0.00460674	2	-2.67513e-05	1.2475e-08
2	1	0	0	1	10.3105	0.000349438	0.000834911	0.00476404	2	-2.65919e-05	3.97755e-09
2	1	0	0	1	10.3305	0.0023485	0.00284585	0.0047738	2	-2.64963e-05	1.35855e-08
2	1	0	0	1	10.3505	0.00434769	0.00484978	0.00477277	2	-2.64008e-05	2.31469e-08
2	1	0	0	1	10.3705	0.00634687	0.00685372	0.0047518	2	-2.63054e-05	3.25675e-08
2	1	0	0	1	10.3905	0.00834606	0.00883583	0.0047569	2	-2.62103e-05	4.20311e-08
2	1	0	0	1	10.4105	0.0103452	0.0108237	0.00474042	2	-2.61151e-05	5.13087e-08
2	1	0	0	1	10.4305	0.0123444	0.012849	0.00473388	2	-2.60199e-05	6.08256e-08
2	1	0	0	1	10.4504	0.0143413	0.0148527	0.00477949	2	-2.59251e-05	7.09886e-08
2	1	0	1	1	10.4703	0.0163428	0.016855	0.0047363	2	-2.58304e-05	7.98302e-08
2	1	0	1	1	10.4903	0.018342	0.0188523	0.0047546	2	-2.57351e-05	8.96354e-08
2	1	0	1	1	10.5103	0.0203412	0.0208347	0.00474462	2	-2.56402e-05	9.88525e-08
2	1	0	1	1	10.5303	0.0223404	0.0228295	0.00474654	2	-2.5545e-05	1.08361e-07
2	1	0	1	1	10.5503	0.0243395	0.0248413	0.00474051	2	-2.545e-05	1.1776e-07
2	1	0	1	1	10.5703	0.0263387	0.0268299	0.00474087	2	-2.53549e-05	1.27197e-07
2	1	0	1	1	10.5903	0.0283379	0.0288392	0.00476207	2	-2.52597e-05	1.37334e-07
2	1	0	1	1	10.6103	0.0303371	0.030831	0.00475405	2	-2.51646e-05	1.46572e-07
2	1	0	1	1	10.6303	0.0323363	0.032842	0.00474556	2	-2.50693e-05	1.55854e-07
2	1	0	1	1	10.6503	0.0343355	0.0348273	0.0047578	2	-2.49741e-05	1.65701e-07
2	1	0	1	1	10.6703	0.0363346	0.0368083	0.0047616	2	-2.48786e-05	1.75266e-07
2	1	0	1	1	10.6903	0.0383338	0.0388216	0.00476025	2	-2.4783e-05	1.84801e-07
2	1	0	1	1	10.7103	0.040333	0.0408295	0.00477617	2	-2.46873e-05	1.95009e-07
2	1	0	1	1	10.7303	0.0423322	0.0428282	0.00478037	2	-2.45915e-05	2.04734e-07
2	1	0	1	1	10.7503	0.0443314	0.0448217	0.00480402	2	-2.44956e-05	2.15325e-07
2	1	0	1	1	10.7703	0.0463306	0.0468221	0.00478919	2	-2.43996e-05	2.2424e-07
2	1	0	1	1	10.7903	0.0483298	0.0488112	0.00480784	2	-2.43035e-05	2.34676e-07
2	1	0	1	1	10.8103	0.0503289	0.0508257	0.00481927	2	-2.42071e-05	2.44943e-07
2	1	0	1	1	10.8303	0.0523281	0.0528224	0.00483083	2	-2.41104e-05	2.55176e-07
2	1	0	1	1	10.8503	0.0543273	0.0548226	0.00483176	2	-2.40137e-05	2.64889e-07
2	1	0	1	1	10.8703	0.0563265	0.0568303	0.00484265	2	-2.39166e-05	2.75209e-07
2	1	0	1	1	10.8903	0.0583257	0.0588283	0.00485708	2	-2.38195e-05	2.85734e-07
2	1	0	1	1	10.9103	0.0603249	0.0608259	0.00486029	2	-2.37221e-05	2.95632e-07
2	1	0	1	1	10.9303	0.0623241	0.0628237	0.0048917	2	-2.36245e-05	3.07315e-07
2	1	0	0	1	10.9501	0.0643232	0.0647984	0.00490041	2	-2.35273e-05	3.17538e-07
2	1	0	0	1	10.9701	0.0663224	0.0668218	0.00490795	2	-2.3429e-05	3.27958e-07
2	1	0	0	1	10.9901	0.0683216	0.0688336	0.00493609	2	-2.33306e-05	3.39769e-07
2	1	0	0	1	11.0101	0.0703208	0.0708144	0.00493528	2	-2.32318e-05	3.49489e-07
2	1	0	0	1	11.0301	0.07232	0.0728057	0.00494072	2	-2.31328e-05	3.59712e-07
2	1	0	0	1	11.0501	0.0743192	0.0748189	0.00496924	2	-2.30335e-05	3.71793e-07
2	1	0	0	1	11.0701	0.0763184	0.0768106	0.00498324	2	-2.29338e-05	3.82765e-07
2	1	0	0	1	11.0901	0.0783175	0.0788043	0.00498378	2	-2.28338e-05	3.92743e-07
2	1	0	0	1	11.1101	0.0803167	0.0808157	0.00501291	2	-2.27336e-05	4.05122e-07
2	1	0	0	1	11.1301	0.0823159	0.0827906	0.00502826	2	-2.26329e-05	4.16293e-07
2	1	0	0	1	11.1501	0.0843151	0.0847833	0.00505319	2	-2.25318e-05	4.28426e-07
2	1	0	0	1	11.1701	0.0863143	0.0867925	0.00507848	2	-2.24303e-05	4.40774e-07
2	1	0	0	1	11.1901	0.0883135	0.0887914	0.00508485	2	-2.23284e-05	4.51491e-07
2	1	0	0	1	11.2101	0.0903126	0.0908112	0.00512368	2	-2.22261e-05	4.65288e-07
2	1	0	0	1	11.2301	0.0923118	0.0928139	0.00513519	2	-2.21232e-05	4.76617e-07
2	1	0	0	1	11.2501	0.094311	0.0947983	0.00514361	2	-2.20199e-05	4.87606e-07
2	1	0	0	1	11.2701	0.0963102	0.0968069	0.00518634	2	-2.19163e-05	5.02074e-07
2	1	0	0	1	11.2901	0.0983094	0.0988047	0.00520048	2	-2.18122e-05	5.13831e-07
2	1	0	0	1	11.3056	0.0998588	0.100335	0.00524065	2	-2.17311e-05	5.25818e-07
2	0	0	0	1	11.3125	0.0994089	0.0998328	0.00256314	2	-2.17082e-05	2.55885e-07
2	0	0	0	1	11.3325	0.0974098	0.0977941	0.00178988	2	-2.16658e-05	1.75039e-07
2	0	0	0	1	11.3525	0.0954106	0.0958156	0.00137476	2	-2.16345e-05	1.31723e-07
2	0	0	0	1	11.3725	0.0934114	0.0938133	0.00108244	2	-2.16103e-05	1.01547e-07
2	0	0	0	1	11.3925	0.0914122	0.0918111	0.000857475	2	-2.15912e-05	7.87257e-08
2	0	0	0	1	11.4125	0.089413	0.0898088	0.000667598	2	-2.15763e-05	5.99562e-08
2	0	0	0	1	11.4325	0.0874138	0.0878163	0.000511502	2	-2.15647e-05	4.49182e-08
2	0	0	0	1	11.4525	0.0854146	0.0857931	0.000377212	2	-2.1556e-05	3.23622e-08
2	0	0	0	1	11.4725	0.0834155	0.0838017	0.00025973	2	-2.15498e-05	2.17658e-08
2	0	0	0	1	11.4925	0.0814163	0.0818069	0.000135058	2	-2.1546e-05	1.10487e-08
2	0	0	0	1	11.5125	0.0794171	0.0798059	5.40659e-05	2	-2.15443e-05	4.31478e-09
2	0	0	0	1	11.5325	0.0774179	0.0778161	-3.18715e-05	2	-2.15445e-05	2.48012e-09
2	0	0	0	1	11.5525	0.0754187	0.075808	-0.000136972	2	-2.15464e-05	1.03836e-08
2	0	0	0	1	11.5725	0.0734195	0.0738138	-0.00021689	2	-2.15501e-05	1.60095e-08
2	0	0	0	1	11.5925	0.0714203	0.0718156	-0.000280922	2	-2.15552e-05	2.01746e-08
2	0	0	0	1	11.6125	0.0694212	0.0698163	-0.000345155	2	-2.15617e-05	2.40975e-08
2	0	0	0	1	11.6325	0.067422	0.0678092	-0.00041504	2	-2.15697e-05	2.81435e-08
2	0	0	0	1	11.6525	0.0654228	0.0658226	-0.000490591	2	-2.15789e-05	3.2292e-08
2	0	0	0	1	11.6724	0.0634168	0.063822	-0.000552966	2	-2.15893e-05	3.52914e-08
2	0	0	1	1	11.6923	0.0614244	0.061827	-0.000592459	2	-2.16009e-05	3.663e-08
2	0	0	1	1	11.7123	0.0594252	0.0598294	-0.000639951	2	-2.16134e-05	3.82879e-08
2	0	0	1	1	11.7323	0.0574261	0.0578261	-0.000688777	2	-2.16269e-05	3.98293e-08
2	0	0	1	1	11.7523	0.0554269	0.0558245	-0.000741806	2	-2.16413e-05	4.1411e-08
2	0	0	1	1	11.7723	0.0534277	0.0538322	-0.000782116	2	-2.16567e-05	4.21031e-08
2	0	0	1	1	11.7923	0.0514285	0.051827	-0.000833738	2	-2.16729e-05	4.32102e-08
2	0	0	1	1	11.8123	0.0494293	0.0498193	-0.000881605	2	-2.16899e-05	4.3921e-08
2	0	0	1	1	11.8323	0.0474301	0.0478122	-0.000900336	2	-2.17078e-05	4.3047e-08
2	0	0	1	1	11.8523	0.0454309	0.0458275	-0.000929953	2	-2.17264e-05	4.26174e-08
2	0	0	1	1	11.8723	0.0434318	0.0438335	-0.000977086	2	-2.17456e-05	4.28292e-08
2	0	0	1	1	11.8923	0.0414326	0.0418383	-0.00100999	2	-2.17657e-05	4.22562e-08
2	0	0	1	1	11.9123	0.0394334	0.039825	-0.00105587	2	-2.17865e-05	4.20499e-08
2	0	0	1	1	11.9323	0.0374342	0.0378171	-0.00107157	2	-2.1808e-05	4.05238e-08
2	0	0	1	1	11.9523	0.035435	0.0358235	-0.00110691	2	-2.18301e-05	3.96535e-08
2	0	0	1	1	11.9723	0.0334358	0.0338302	-0.00113936	2	-2.18527e-05	3.85446e-08
2	0	0	1	1	11.9923	0.0314366	0.0318389	-0.00116783	2	-2.18759e-05	3.71823e-08
2	0	0	1	1	12.0123	0.0294375	0.0298253	-0.00118565	2	-2.18998e-05	3.53624e-08
2	0	0	1	1	12.0323	0.0274383	0.0278415	-0.00123251	2	-2.19241e-05	3.43149e-08
2	0	0	1	1	12.0523	0.0254391	0.0258432	-0.00125155	2	-2.19489e-05	3.23441e-08
2	0	0	1	1	12.0723	0.0234399	0.0238357	-0.00129097	2	-2.19745e-05	3.07712e-08
2	0	0	1	1	12.0923	0.0214407	0.0218563	-0.00130044	2	-2.20006e-05	2.84228e-08
2	0	0	1	1	12.1123	0.0194415	0.0198405	-0.00132334	2	-2.2027e-05	2.62557e-08
2	0	0	1	1	12.1323	0.0174424	0.0178491	-0.00134989	2	-2.2054e-05	2.40943e-08
2	0	0	1	1	12.1523	0.0154432	0.0158405	-0.00137383	2	-2.20814e-05	2.17621e-08
2	0	0	0	1	12.1721	0.013444	0.0138423	-0.00141705	2	-2.21095e-05	1.96152e-08
2	0	0	0	1	12.1921	0.0114448	0.0118559	-0.00143028	2	-2.2138e-05	1.69573e-08
2	0	0	0	1	12.2121	0.00944561	0.00983949	-0.00144246	2	-2.21669e-05	1.4193e-08
2	0	0	0	1	12.2321	0.00744642	0.00783661	-0.00145254	2	-2.21963e-05	1.1383e-08
2	0	0	0	1	12.2521	0.00544724	0.00585938	-0.00149797	2	-2.2226e-05	8.77716e-09
2	0	0	0	1	12.2721	0.00344806	0.00383637	-0.00151695	2	-2.22562e-05	5.81957e-09
2	0	0	0	1	12.2921	0.00144887	0.0018426	-0.0015401	2	-2.22871e-05	2.8378e-09
2	0	0	0	1	12.3121	-0.000550315	-0.000171086	-0.00154491	2	-2.23182e-05	2.64312e-10
2	0	0	0	1	12.3321	-0.0025495	-0.0021604	-0.00158655	2	-2.23497e-05	3.42757e-09
2	0	0	0	1	12.3521	-0.00454869	-0.00417409	-0.00159885	2	-2.23816e-05	6.67374e-09
2	0	0	0	1	12.3721	-0.00654787	-0.00615069	-0.00160551	2	-2.24138e-05	9.87496e-09
2	0	0	0	1	12.3921	-0.00854706	-0.00815102	-0.00163562	2	-2.24465e-05	1.3332e-08
2	0	0	0	1	12.4121	-0.0105462	-0.0101442	-0.00164586	2	-2.24794e-05	1.66959e-08
2	0	0	0	1	12.4321	-0.0125454	-0.0121587	-0.00168437	2	-2.2513e-05	2.04797e-08
2	0	0	0	1	12.4521	-0.0145446	-0.0141611	-0.00169297	2	-2.25468e-05	2.39744e-08
2	0	0	0	1	12.4721	-0.0165438	-0.0161623	-0.00170868	2	-2.2581e-05	2.76163e-08
2	0	0	0	1	12.4921	-0.018543	-0.0181493	-0.00172964	2	-2.26155e-05	3.13918e-08
2	0	0	0	1	12.5121	-0.0205422	-0.0201535	-0.00174901	2	-2.26504e-05	3.52485e-08
2	0	0	0	1	12.5321	-0.0225414	-0.0221574	-0.00176977	2	-2.26857e-05	3.92135e-08
2	0	0	0	1	12.5521	-0.0245405	-0.0241465	-0.00177491	2	-2.27213e-05	4.28579e-08
2	0	0	0	1	12.5721	-0.0265397	-0.0261454	-0.00179351	2	-2.27572e-05	4.68921e-08
2	0	0	0	1	12.5921	-0.0285389	-0.0281641	-0.00181323	2	-2.27937e-05	5.10681e-08
2	0	0	0	1	12.6121	-0.0305381	-0.0301477	-0.00183635	2	-2.28304e-05	5.53619e-08
2	0	0	0	1	12.6321	-0.0325373	-0.0321409	-0.00183642	2	-2.28673e-05	5.90242e-08
2	0	0	0	1	12.652	-0.0345365	-0.0341526	-0.00191687	2	-2.29047e-05	6.5466e-08
2	0	0	1	1	12.6719	-0.0365357	-0.0361364	-0.00190519	2	-2.29424e-05	6.88469e-08
2	0	0	1	1	12.6919	-0.0385349	-0.0381412	-0.00190973	2	-2.29807e-05	7.28394e-08
2	0	0	1	1	12.7119	-0.040534	-0.0401536	-0.00192782	2	-2.30192e-05	7.74089e-08
2	0	0	1	1	12.7319	-0.0425332	-0.0421425	-0.00193655	2	-2.3058e-05	8.16113e-08
2	0	0	1	1	12.7519	-0.0445324	-0.0441475	-0.00197018	2	-2.30972e-05	8.69784e-08
2	0	0	1	1	12.7719	-0.0465316	-0.0461411	-0.00197417	2	-2.31367e-05	9.10904e-08
2	0	0	1	1	12.7919	-0.0485308	-0.0481524	-0.00199447	2	-2.31766e-05	9.60385e-08
2	0	0	1	1	12.8119	-0.05053	-0.0501426	-0.00200539	2	-2.32169e-05	1.00556e-07
2	0	0	1	1	12.8319	-0.0525291	-0.0521262	-0.00203512	2	-2.32574e-05	1.06083e-07
2	0	0	1	1	12.8519	-0.0545283	-0.0541409	-0.0020474	2	-2.32984e-05	1.10848e-07
2	0	0	1	1	12.8719	-0.0565275	-0.0561423	-0.00205236	2	-2.33396e-05	1.15225e-07
2	0	0	1	1	12.8919	-0.0585267	-0.0581427	-0.00207675	2	-2.33813e-05	1.20748e-07
2	0	0	1	1	12.9119	-0.0605259	-0.0601415	-0.00209645	2	-2.34232e-05	1.26084e-07
2	0	0	1	1	12.9319	-0.0625251	-0.0621298	-0.00213713	2	-2.34657e-05	1.3278e-07
2	0	0	1	1	12.9519	-0.0645243	-0.0641397	-0.00213315	2	-2.35084e-05	1.3682e-07
2	0	0	1	1	12.9719	-0.0665235	-0.0661404	-0.00216107	2	-2.35515e-05	1.42934e-07
2	0	0	1	1	12.9919	-0.0685226	-0.068162	-0.00217535	2	-2.3595e-05	1.48276e-07
2	0	0	1	1	13.0119	-0.0705218	-0.0701619	-0.00220434	2	-2.36389e-05	1.5466e-07
2	0	0	1	1	13.0319	-0.072521	-0.0721291	-0.00221346	2	-2.36832e-05	1.59655e-07
2	0	0	1	1	13.0519	-0.0745202	-0.0741511	-0.00224199	2	-2.37281e-05	1.66246e-07
2	0	0	1	1	13.0719	-0.0765194	-0.0761595	-0.00225608	2	-2.37731e-05	1.71822e-07
2	0	0	1	1	13.0919	-0.0785186	-0.0781308	-0.00228686	2	-2.38186e-05	1.78674e-07
2	0	0	1	1	13.1119	-0.0805178	-0.0801472	-0.00229665	2	-2.38645e-05	1.8407e-07
2	0	0	1	1	13.1319	-0.0825169	-0.082145	-0.00231273	2	-2.39108e-05	1.8998e-07
2	0	0	0	1	13.1517	-0.0845161	-0.0841231	-0.00233823	2	-2.39574e-05	1.96699e-07
2	0	0	0	1	13.1717	-0.0865153	-0.0861334	-0.00236058	2	-2.40047e-05	2.03325e-07
2	0	0	0	1	13.1917	-0.0885145	-0.0881416	-0.00239752	2	-2.40525e-05	2.11321e-07
2	0	0	0	1	13.2117	-0.0905137	-0.0901362	-0.00240961	2	-2.41009e-05	2.17193e-07
2	0	0	0	1	13.2317	-0.0925129	-0.0921342	-0.00244711	2	-2.41496e-05	2.25463e-07
2	0	0	0	1	13.2517	-0.0945121	-0.0941388	-0.00246087	2	-2.41989e-05	2.31663e-07
2	0	0	0	1	13.2717	-0.0965112	-0.0961188	-0.0024818	2	-2.42486e-05	2.38548e-07
2	0	0	0	1	13.2917	-0.0985104	-0.0981269	-0.00252805	2	-2.42991e-05	2.4807e-07
2	0	0	0	1	13.3117	-0.10051	-0.100131	-0.00257381	2	-2.43501e-05	2.57719e-07
2	0	0	0	1	13.3317	-0.102509	-0.102143	-0.00258187	2	-2.44019e-05	2.6372e-07
2	0	0	0	1	13.3517	-0.104508	-0.104131	-0.00262182	2	-2.44541e-05	2.73013e-07
2	0	0	0	1	13.3717	-0.106507	-0.10614	-0.00265788	2	-2.45072e-05	2.82108e-07
2	0	0	0	1	13.3917	-0.108506	-0.108131	-0.00270182	2	-2.4561e-05	2.9215e-07
2	0	0	0	1	13.4117	-0.110506	-0.110142	-0.0027498	2	-2.46155e-05	3.02869e-07
2	0	0	0	1	13.4317	-0.112505	-0.112125	-0.00277198	2	-2.4671e-05	3.10808e-07
2	0	0	0	1	13.4517	-0.114504	-0.114129	-0.00283972	2	-2.47274e-05	3.24096e-07
2	0	0	0	1	13.4717	-0.116503	-0.116131	-0.00287801	2	-2.47847e-05	3.34226e-07
2	0	0	0	1	13.4917	-0.118502	-0.11814	-0.0029285	2	-2.48431e-05	3.45973e-07
2	0	0	0	1	13.5117	-0.120501	-0.120122	-0.00298794	2	-2.49024e-05	3.58916e-07
2	0	0	0	1	13.5317	-0.122501	-0.122117	-0.00303453	2	-2.4963e-05	3.70566e-07
2	0	0	0	1	13.5517	-0.1245	-0.124134	-0.00312481	2	-2.50248e-05	3.87896e-07
2	0	0	0	1	13.5717	-0.126499	-0.126129	-0.00318986	2	-2.50881e-05	4.02333e-07
2	0	0	0	1	13.5917	-0.128498	-0.128121	-0.00326894	2	-2.51528e-05	4.18819e-07
2	0	0	0	1	13.6117	-0.130497	-0.13013	-0.00335455	2	-2.52192e-05	4.36527e-07
2	0	0	0	1	13.6316	-0.13249	-0.132109	-0.0034442	2	-2.52869e-05	4.55011e-07
2	0	0	1	1	13.6515	-0.134496	-0.134122	-0.00353719	2	-2.53567e-05	4.74413e-07
2	0	0	1	1	13.6715	-0.136495	-0.136133	-0.00364843	2	-2.54287e-05	4.96673e-07
2	0	0	1	1	13.6915	-0.138494	-0.138117	-0.00374975	2	-2.55029e-05	5.17904e-07
2	0	0	1	1	13.7115	-0.140493	-0.140116	-0.00388982	2	-2.55796e-05	5.45025e-07
2	0	0	1	1	13.7315	-0.142493	-0.142124	-0.00402087	2	-2.56587e-05	5.71461e-07
2	0	0	1	1	13.7515	-0.144492	-0.144124	-0.00415564	2	-2.57406e-05	5.98927e-07
2	0	0	1	1	13.7715	-0.146491	-0.14613	-0.00429683	2	-2.58254e-05	6.27896e-07
2	0	0	1	1	13.7915	-0.14849	-0.148121	-0.0044666	2	-2.59134e-05	6.61599e-07
2	0	0	1	1	13.8115	-0.150489	-0.15013	-0.00465907	2	-2.60049e-05	6.99464e-07
2	0	0	1	1	13.8315	-0.152488	-0.152131	-0.00484571	2	-2.61001e-05	7.37182e-07
2	0	0	1	1	13.8515	-0.154488	-0.154111	-0.00504852	2	-2.61991e-05	7.78034e-07
2	0	0	1	1	13.8715	-0.156487	-0.156123	-0.00526302	2	-2.63024e-05	8.21677e-07
2	0	0	1	1	13.8915	-0.158486	-0.158126	-0.00547801	2	-2.64099e-05	8.66217e-07
2	0	0	1	1	13.9115	-0.160485	-0.1601	-0.00572619	2	-2.65222e-05	9.16762e-07
2	0	0	1	1	13.9315	-0.162484	-0.162118	-0.0059882	2	-2.66394e-05	9.70794e-07
2	0	0	1	1	13.9515	-0.164484	-0.164109	-0.00625195	2	-2.67619e-05	1.026e-06
2	0	0	1	1	13.9715	-0.166483	-0.166127	-0.00652496	2	-2.68899e-05	1.08397e-06
2	0	0	1	1	13.9915	-0.168482	-0.168145	-0.00682498	2	-2.70236e-05	1.14759e-06
2	0	0	1	1	14.0115	-0.170481	-0.170139	-0.00710332	2	-2.71631e-05	1.20855e-06
2	0	0	1	1	14.0315	-0.17248	-0.172137	-0.0074266	2	-2.73083e-05	1.27839e-06
2	0	0	1	1	14.0515	-0.17448	-0.174131	-0.00773104	2	-2.74598e-05	1.34622e-06
2	0	0	1	1	14.0715	-0.176479	-0.176125	-0.00803748	2	-2.76176e-05	1.4156e-06
2	0	0	1	1	14.0915	-0.178478	-0.178132	-0.00833427	2	-2.77816e-05	1.4846e-06
2	0	0	1	1	14.1115	-0.180477	-0.18013	-0.00866658	2	-2.79518e-05	1.56111e-06
2	0	0	0	1	14.1313	-0.182476	-0.182138	-0.00902234	2	-2.8127e-05	1.64331e-06
2	0	0	0	1	14.1513	-0.184475	-0.184135	-0.00926954	2	-2.831e-05	1.70685e-06
2	0	0	0	1	14.1713	-0.186475	-0.186139	-0.00959414	2	-2.8499e-05	1.78584e-06
2	0	0	0	1	14.1913	-0.188474	-0.188125	-0.00988383	2	-2.86941e-05	1.8594e-06
2	0	0	0	1	14.2113	-0.190473	-0.190131	-0.0101977	2	-2.8895e-05	1.93891e-06
2	0	0	1	1	14.2623	-0.195571	-0.195205	-0.0106131	2	-2.94267e-05	2.07172e-06
2	0	0	1	1	14.2823	-0.19757	-0.197208	-0.0108108	2	-2.96458e-05	2.13197e-06
2	0	0	1	1	14.3023	-0.199569	-0.199197	-0.0110259	2	-2.98696e-05	2.19633e-06
2	0	0	1	1	14.3223	-0.201568	-0.201207	-0.0112856	2	-3.0098e-05	2.27073e-06
2	0	0	1	1	14.3423	-0.203568	-0.203204	-0.0114818	2	-3.03304e-05	2.33313e-06
2	0	0	1	1	14.3623	-0.205567	-0.20521	-0.0116711	2	-3.05667e-05	2.39503e-06
2	0	0	1	1	14.3823	-0.207566	-0.207213	-0.0118025	2	-3.08064e-05	2.44563e-06
2	0	0	1	1	14.4023	-0.209565	-0.209212	-0.0119876	2	-3.10494e-05	2.50795e-06
2	0	0	1	1	14.4223	-0.211564	-0.211177	-0.0121091	2	-3.12951e-05	2.55715e-06
2	0	0	1	1	14.4423	-0.213564	-0.213213	-0.0122657	2	-3.15434e-05	2.6152e-06
2	0	0	1	1	14.4623	-0.215563	-0.215196	-0.0123911	2	-3.1794e-05	2.66652e-06
2	0	0	1	1	14.4823	-0.217562	-0.217209	-0.0124258	2	-3.20467e-05	2.699e-06
2	0	0	1	1	14.5023	-0.219561	-0.219183	-0.012545	2	-3.23011e-05	2.74966e-06
2	0	0	1	1	14.5223	-0.22156	-0.221206	-0.0125826	2	-3.25571e-05	2.78335e-06
2	0	0	1	1	14.5423	-0.223559	-0.223195	-0.0126354	2	-3.28143e-05	2.82015e-06
2	0	0	1	1	14.5623	-0.225559	-0.225212	-0.0126838	2	-3.30724e-05	2.85653e-06
2	0	0	1	1	14.5823	-0.227558	-0.227192	-0.012697	2	-3.33316e-05	2.88466e-06
2	0	0	1	1	14.6023	-0.229557	-0.229203	-0.0127409	2	-3.35913e-05	2.92025e-06
2	0	0	0	1	14.6221	-0.231556	-0.231176	-0.0127914	2	-3.38492e-05	2.95707e-06
2	0	0	0	1	14.6421	-0.233555	-0.233187	-0.012829	2	-3.411e-05	2.99155e-06
2	0	0	0	1	14.6621	-0.235555	-0.235185	-0.0127961	2	-3.43709e-05	3.00945e-06
2	0	0	0	1	14.6821	-0.237554	-0.237189	-0.0128097	2	-3.46318e-05	3.03831e-06
2	0	0	0	1	14.7021	-0.239553	-0.239186	-0.0128137	2	-3.48927e-05	3.06485e-06
2	0	0	0	1	14.7221	-0.241552	-0.241193	-0.0127833	2	-3.51534e-05	3.08324e-06
2	0	0	0	1	14.7421	-0.243551	-0.243184	-0.0127733	2	-3.54139e-05	3.10627e-06
2	0	0	0	1	14.7621	-0.245551	-0.245186	-0.0127392	2	-3.5674e-05	3.12346e-06
2	0	0	0	1	14.7821	-0.24755	-0.247196	-0.0127412	2	-3.59338e-05	3.14958e-06
2	0	0	0	1	14.8021	-0.249549	-0.249176	-0.0127103	2	-3.61928e-05	3.16711e-06
2	0	0	0	1	14.8221	-0.251548	-0.251176	-0.0126654	2	-3.64515e-05	3.18125e-06
2	0	0	0	1	14.8421	-0.253547	-0.253182	-0.0126791	2	-3.67096e-05	3.21012e-06
2	0	0	0	1	14.8621	-0.255546	-0.255188	-0.0126171	2	-3.69669e-05	3.21973e-06
2	0	0	0	1	14.8821	-0.257546	-0.257162	-0.0125629	2	-3.72236e-05	3.2307e-06
2	0	0	0	1	14.9021	-0.259545	-0.259174	-0.0125506	2	-3.74796e-05	3.25281e-06
2	0	0	0	1	14.9221	-0.261544	-0.261187	-0.0124962	2	-3.7735e-05	3.26384e-06
2	0	0	0	1	14.9421	-0.263543	-0.263187	-0.0124648	2	-3.79893e-05	3.28058e-06
2	0	0	0	1	14.9621	-0.265542	-0.265186	-0.0124291	2	-3.82431e-05	3.29602e-06
2	0	0	0	1	14.9821	-0.267542	-0.267181	-0.0124033	2	-3.84962e-05	3.31393e-06
2	0	0	0	1	15.0021	-0.269541	-0.26918	-0.012324	2	-3.87485e-05	3.31738e-06
2	0	0	0	1	15.0221	-0.27154	-0.271184	-0.0123237	2	-3.9e-05	3.34198e-06
2	0	0	0	1	15.0421	-0.273539	-0.273179	-0.0122661	2	-3.92507e-05	3.35084e-06
2	0	0	0	1	15.0621	-0.275538	-0.27516	-0.0122664	2	-3.95007e-05	3.37522e-06
2	0	0	0	1	15.0821	-0.277538	-0.277177	-0.0122013	2	-3.975e-05	3.38191e-06
2	0	0	0	1	15.1021	-0.279537	-0.279175	-0.0121586	2	-3.99986e-05	3.39438e-06
2	0	0	1	1	15.1219	-0.281536	-0.281174	-0.0121544	2	-4.02442e-05	3.41751e-06
2	0	0	1	1	15.1419	-0.283535	-0.283163	-0.0121246	2	-4.04915e-05	3.43323e-06
2	0	0	1	1	15.1619	-0.285534	-0.285157	-0.012063	2	-4.0738e-05	3.43985e-06
2	0	0	1	1	15.1819	-0.287533	-0.287154	-0.0120137	2	-4.09839e-05	3.44979e-06
2	0	0	1	1	15.2019	-0.289533	-0.289159	-0.0120487	2	-4.12291e-05	3.484e-06
2	0	0	1	1	15.2219	-0.291532	-0.291153	-0.0119676	2	-4.14738e-05	3.4844e-06
2	0	0	1	1	15.2419	-0.293531	-0.293165	-0.0119623	2	-4.1718e-05	3.50693e-06
2	0	0	1	1	15.2619	-0.29553	-0.295168	-0.0119281	2	-4.19616e-05	3.52079e-06
2	0	0	1	1	15.2819	-0.297529	-0.29715	-0.0119124	2	-4.22047e-05	3.53975e-06
2	0	0	1	1	15.3019	-0.299529	-0.299153	-0.0118786	2	-4.24472e-05	3.55351e-06
2	0	0	1	1	15.3219	-0.301528	-0.301151	-0.0118708	2	-4.26895e-05	3.57491e-06
2	0	0	1	1	15.3419	-0.303527	-0.303159	-0.011849	2	-4.29314e-05	3.59212e-06
2	0	0	1	1	15.3619	-0.305526	-0.305168	-0.0118413	2	-4.31728e-05	3.61359e-06
2	0	0	1	1	15.3819	-0.307525	-0.307162	-0.011823	2	-4.34141e-05	3.63157e-06
2	0	0	1	1	15.4019	-0.309525	-0.309163	-0.0117749	2	-4.36549e-05	3.64037e-06
2	0	0	1	1	15.4219	-0.311524	-0.311153	-0.0117803	2	-4.38955e-05	3.66548e-06
2	0	0	1	1	15.4419	-0.313523	-0.31316	-0.0117834	2	-4.41357e-05	3.69008e-06
2	0	0	1	1	15.4619	-0.315522	-0.315159	-0.0117417	2	-4.43757e-05	3.7005e-06
2	0	0	1	1	15.4819	-0.317521	-0.317157	-0.0117435	2	-4.46157e-05	3.72452e-06
2	0	0	1	1	15.5019	-0.31952	-0.319171	-0.011763	2	-4.48556e-05	3.7544e-06
2	0	0	1	1	15.5219	-0.32152	-0.321162	-0.0117628	2	-4.50953e-05	3.77775e-06
2	0	0	1	1	15.5419	-0.323519	-0.323161	-0.0117482	2	-4.5335e-05	3.79656e-06
2	0	0	1	1	15.5619	-0.325518	-0.325137	-0.0117363	2	-4.55746e-05	3.81591e-06
2	0	0	1	1	15.5819	-0.327517	-0.327145	-0.0117437	2	-4.58141e-05	3.84189e-06
2	0	0	1	1	15.6018	-0.329523	-0.329179	-0.0117529	2	-4.60528e-05	3.86882e-06
2	0	0	0	1	15.6217	-0.331516	-0.33115	-0.0117825	2	-4.62915e-05	3.90177e-06
2	0	0	0	1	15.6417	-0.333515	-0.333136	-0.0117445	2	-4.65314e-05	3.91252e-06
2	0	0	0	1	15.6617	-0.335514	-0.335143	-0.0117657	2	-4.67715e-05	3.9432e-06
2	0	0	0	1	15.6817	-0.337513	-0.337135	-0.0117587	2	-4.70116e-05	3.96428e-06
2	0	0	0	1	15.7017	-0.339512	-0.339129	-0.0117794	2	-4.7252e-05	3.99473e-06
2	0	0	0	1	15.7217	-0.341511	-0.341142	-0.0118168	2	-4.74927e-05	4.0312e-06
2	0	0	0	1	15.7417	-0.343511	-0.343142	-0.0118156	2	-4.77337e-05	4.05441e-06
2	0	0	0	1	15.7617	-0.34551	-0.345148	-0.0119068	2	-4.79751e-05	4.10959e-06
2	0	0	0	1	15.7817	-0.347509	-0.347148	-0.0118463	2	-4.82169e-05	4.11243e-06
2	0	0	0	1	15.8017	-0.349508	-0.349141	-0.0118883	2	-4.84589e-05	4.15069e-06
2	0	0	0	1	15.8217	-0.351507	-0.351137	-0.011873	2	-4.87015e-05	4.16907e-06
2	0	0	0	1	15.8417	-0.353507	-0.353133	-0.0119267	2	-4.89444e-05	4.2117e-06
2	0	0	0	1	15.8617	-0.355506	-0.355137	-0.0119311	2	-4.91878e-05	4.23718e-06
2	0	0	0	1	15.8817	-0.357505	-0.357132	-0.0119834	2	-4.94319e-05	4.27966e-06
2	0	0	0	1	15.9017	-0.359504	-0.359136	-0.0120116	2	-4.96764e-05	4.31378e-06
2	0	0	0	1	15.9217	-0.361503	-0.361139	-0.0120038	2	-4.99217e-05	4.33503e-06
2	0	0	0	1	15.9417	-0.363503	-0.363133	-0.0120752	2	-5.01675e-05	4.38489e-06
2	0	0	0	1	15.9617	-0.365502	-0.36513	-0.0120927	2	-5.04138e-05	4.41542e-06
2	0	0	0	1	15.9817	-0.367501	-0.367136	-0.0121541	2	-5.06611e-05	4.46221e-06
2	0	0	0	1	16.0017	-0.3695	-0.369125	-0.0121616	2	-5.09091e-05	4.48915e-06
2	0	0	0	1	16.0217	-0.371499	-0.371146	-0.0121776	2	-5.11579e-05	4.51968e-06
2	0	0	0	1	16.0417	-0.373498	-0.373144	-0.0122445	2	-5.14074e-05	4.56895e-06
2	0	0	0	1	16.0617	-0.375498	-0.375126	-0.0123118	2	-5.16578e-05	4.61846e-06
2	0	0	0	1	16.0817	-0.377497	-0.377127	-0.0123854	2	-5.1909e-05	4.67089e-06
2	0	0	1	1	16.1015	-0.379496	-0.37914	-0.0124139	2	-5.2159e-05	4.7066e-06
2	0	0	1	1	16.1215	-0.381495	-0.381128	-0.0124561	2	-5.24124e-05	4.74738e-06
2	0	0	1	1	16.1415	-0.383494	-0.383133	-0.0125157	2	-5.26664e-05	4.79518e-06
2	0	0	1	1	16.1615	-0.385494	-0.38513	-0.0125452	2	-5.29216e-05	4.83151e-06
2	0	0	1	1	16.1815	-0.387493	-0.387122	-0.0126007	2	-5.31779e-05	4.87801e-06
2	0	0	1	1	16.2015	-0.389492	-0.389104	-0.012686	2	-5.34352e-05	4.93617e-06
2	0	0	1	1	16.2215	-0.391491	-0.391103	-0.0127004	2	-5.36936e-05	4.96716e-06
2	0	0	1	1	16.2415	-0.39349	-0.393114	-0.0127954	2	-5.39533e-05	5.03004e-06
2	0	0	1	1	16.2615	-0.395489	-0.395113	-0.0128149	2	-5.42142e-05	5.06332e-06
2	0	0	1	1	16.2815	-0.397489	-0.397109	-0.0128865	2	-5.44765e-05	5.11735e-06
2	0	0	1	1	16.3015	-0.399488	-0.399122	-0.012949	2	-5.47399e-05	5.16825e-06
2	1	0	0	0	16.3121	-0.399488	-0.399065	-0.0105994	2	-5.48653e-05	4.22985e-06
2	1	0	0	0	16.3321	-0.397489	-0.397067	-0.00947285	2	-5.5059e-05	3.76136e-06
2	1	0	0	0	16.3521	-0.39549	-0.395045	-0.00888412	2	-5.52373e-05	3.50963e-06
2	1	0	0	0	16.3721	-0.39349	-0.393049	-0.00848628	2	-5.5406e-05	3.33552e-06
2	1	0	0	0	16.3921	-0.391491	-0.391061	-0.00812749	2	-5.55672e-05	3.17834e-06
2	1	0	0	0	16.4121	-0.389492	-0.389047	-0.00784923	2	-5.57223e-05	3.05372e-06
2	1	0	0	0	16.4321	-0.387493	-0.387043	-0.00757637	2	-5.58718e-05	2.93239e-06
2	1	0	0	0	16.4521	-0.385494	-0.385051	-0.00734762	2	-5.60162e-05	2.82921e-06
2	1	0	0	0	16.4721	-0.383494	-0.383044	-0.00711804	2	-5.61563e-05	2.72652e-06
2	1	0	0	0	16.4921	-0.381495	-0.381061	-0.00692432	2	-5.62919e-05	2.63859e-06
2	1	0	0	0	16.5121	-0.379496	-0.379081	-0.00671328	2	-5.64234e-05	2.54487e-06
2	1	0	1	0	16.5319	-0.377497	-0.377059	-0.00651455	2	-5.65494e-05	2.45637e-06
2	1	0	1	0	16.5519	-0.375498	-0.375067	-0.00635473	2	-5.66734e-05	2.38345e-06
2	1	0	1	0	16.5719	-0.373498	-0.373074	-0.00615139	2	-5.67937e-05	2.29492e-06
2	1	0	1	0	16.5919	-0.371499	-0.371081	-0.00604366	2	-5.69107e-05	2.24268e-06
2	1	0	1	0	16.6119	-0.3695	-0.369067	-0.00582357	2	-5.70245e-05	2.14929e-06
2	1	0	1	0	16.6319	-0.367501	-0.367062	-0.00569647	2	-5.71351e-05	2.09096e-06
2	1	0	1	0	16.6519	-0.365502	-0.365065	-0.00550971	2	-5.72426e-05	2.0114e-06
2	1	0	1	0	16.6719	-0.363503	-0.363078	-0.00541328	2	-5.73473e-05	1.96544e-06
2	1	0	1	0	16.6919	-0.361503	-0.361065	-0.00527665	2	-5.74492e-05	1.90521e-06
2	1	0	1	0	16.7119	-0.359504	-0.359063	-0.00514149	2	-5.75482e-05	1.84612e-06
2	1	0	1	0	16.7319	-0.357505	-0.357071	-0.00500666	2	-5.76446e-05	1.78773e-06
2	1	0	1	0	16.7674	-0.353956	-0.353535	-0.00476242	2	-5.78084e-05	1.68369e-06
2	1	0	0	0	16.8029	-0.350408	-0.349986	-0.00435025	2	-5.79672e-05	1.52253e-06
2	1	0	0	0	16.8229	-0.348409	-0.34797	-0.00421295	2	-5.80528e-05	1.46598e-06
2	1	0	0	0	16.8429	-0.346409	-0.345996	-0.00412757	2	-5.8136e-05	1.42812e-06
2	1	0	0	0	16.8629	-0.34441	-0.343983	-0.00398557	2	-5.82168e-05	1.37097e-06
2	1	0	0	0	16.8829	-0.342411	-0.341994	-0.00387748	2	-5.82955e-05	1.32608e-06
2	1	0	0	0	16.9029	-0.340412	-0.339971	-0.00377059	2	-5.83718e-05	1.28189e-06
2	1	0	0	0	16.9229	-0.338413	-0.337983	-0.00367131	2	-5.84461e-05	1.24084e-06
2	1	0	0	0	16.9429	-0.336414	-0.335984	-0.00356413	2	-5.85184e-05	1.19749e-06
2	1	0	0	0	16.9629	-0.334414	-0.333982	-0.00344529	2	-5.85884e-05	1.15067e-06
2	1	0	0	0	16.9829	-0.332415	-0.331984	-0.0033697	2	-5.86565e-05	1.11869e-06
2	1	0	0	0	17.0029	-0.330416	-0.329978	-0.00326668	2	-5.87227e-05	1.07793e-06
2	1	0	1	0	17.0227	-0.328417	-0.327986	-0.00316121	2	-5.87857e-05	1.03683e-06
2	1	0	1	0	17.0427	-0.326418	-0.325994	-0.00306713	2	-5.88478e-05	9.99867e-07
2	1	0	1	0	17.0627	-0.324418	-0.323984	-0.00295159	2	-5.8908e-05	9.56268e-07
2	1	0	1	0	17.0827	-0.322419	-0.321993	-0.00289134	2	-5.89663e-05	9.30992e-07
2	1	0	1	0	17.1027	-0.32042	-0.319993	-0.00278995	2	-5.90229e-05	8.92765e-07
2	1	0	1	0	17.1227	-0.318421	-0.318013	-0.00269275	2	-5.90775e-05	8.5633e-07
2	1	0	1	0	17.1427	-0.316422	-0.315998	-0.00261265	2	-5.91303e-05	8.25593e-07
2	1	0	1	0	17.1627	-0.314423	-0.313991	-0.00251472	2	-5.91812e-05	7.89599e-07
2	1	0	1	0	17.1827	-0.312423	-0.31199	-0.00244048	2	-5.92305e-05	7.61405e-07
2	1	0	1	0	17.2027	-0.310424	-0.310001	-0.00234357	2	-5.9278e-05	7.2651e-07
2	1	0	1	0	17.2227	-0.308425	-0.308011	-0.00224108	2	-5.93238e-05	6.90278e-07
2	1	0	1	0	17.2427	-0.306426	-0.306012	-0.00217226	2	-5.9368e-05	6.64738e-07
2	1	0	1	0	17.2627	-0.304427	-0.303997	-0.00209317	2	-5.94102e-05	6.36317e-07
2	1	0	1	0	17.2827	-0.302427	-0.302	-0.00200182	2	-5.94508e-05	6.0455e-07
2	1	0	1	0	17.3027	-0.300428	-0.299986	-0.00190877	2	-5.94898e-05	5.72605e-07
2	1	0	1	0	17.3227	-0.298429	-0.297995	-0.00183144	2	-5.95272e-05	5.45762e-07
2	1	0	1	0	17.3427	-0.29643	-0.295993	-0.00175081	2	-5.95628e-05	5.18227e-07
2	1	0	1	0	17.3627	-0.294431	-0.294006	-0.0016727	2	-5.95968e-05	4.91785e-07
2	1	0	1	0	17.3827	-0.292431	-0.291989	-0.00157645	2	-5.96291e-05	4.60306e-07
2	1	0	1	0	17.4027	-0.290432	-0.289994	-0.00150177	2	-5.96598e-05	4.35505e-07
2	1	0	1	0	17.4227	-0.288433	-0.287999	-0.00143969	2	-5.96888e-05	4.1463e-07
2	1	0	1	0	17.4427	-0.286434	-0.286003	-0.00133937	2	-5.97163e-05	3.83063e-07
2	1	0	1	0	17.4627	-0.284435	-0.284003	-0.00125601	2	-5.97421e-05	3.5671e-07
2	1	0	1	0	17.4827	-0.282436	-0.282008	-0.00116455	2	-5.9766e-05	3.28412e-07
2	1	0	1	0	17.5026	-0.280441	-0.280022	-0.00106425	2	-5.97882e-05	2.98014e-07
2	1	0	0	0	17.5225	-0.278437	-0.278015	-0.00100126	2	-5.98087e-05	2.78364e-07
2	1	0	0	0	17.5425	-0.276438	-0.276009	-0.000911571	2	-5.98275e-05	2.51601e-07
2	1	0	0	0	17.5625	-0.274439	-0.274013	-0.000833827	2	-5.98447e-05	2.28479e-07
2	1	0	0	0	17.5825	-0.27244	-0.272012	-0.000741079	2	-5.98603e-05	2.01582e-07
2	1	0	0	0	17.6025	-0.27044	-0.270017	-0.000640939	2	-5.98739e-05	1.73065e-07
2	1	0	0	0	17.6225	-0.268441	-0.268024	-0.000541463	2	-5.98858e-05	1.45125e-07
2	1	0	0	0	17.6425	-0.266442	-0.266014	-0.000463972	2	-5.98956e-05	1.23423e-07
2	1	0	0	0	17.6625	-0.264443	-0.264015	-0.000360791	2	-5.99036e-05	9.52545e-08
2	1	0	0	0	17.6825	-0.262444	-0.262005	-0.000262724	2	-5.99096e-05	6.88349e-08
2	1	0	0	0	17.7025	-0.260444	-0.260009	-0.00015479	2	-5.99137e-05	4.02468e-08
2	1	0	0	0	17.7225	-0.258445	-0.258027	-4.91086e-05	2	-5.99157e-05	1.26713e-08
2	1	0	0	0	17.7425	-0.256446	-0.256038	4.17452e-05	2	-5.99157e-05	1.06883e-08
2	1	0	0	0	17.7625	-0.254447	-0.254022	0.000173166	2	-5.99132e-05	4.39879e-08
2	1	0	0	0	17.7825	-0.252448	-0.252023	0.000306024	2	-5.99085e-05	7.7125e-08
2	1	0	0	0	17.8025	-0.250449	-0.250011	0.000423031	2	-5.99014e-05	1.05762e-07
2	1	0	0	0	17.8225	-0.248449	-0.24802	0.000530681	2	-5.98917e-05	1.3162e-07
2	1	0	0	0	17.8425	-0.24645	-0.246028	0.000654569	2	-5.98796e-05	1.61043e-07
2	1	0	0	0	17.8625	-0.244451	-0.244027	0.00081703	2	-5.98645e-05	1.99378e-07
2	1	0	0	0	17.8825	-0.242452	-0.242044	0.000945011	2	-5.98468e-05	2.28734e-07
2	1	0	0	0	17.9025	-0.240453	-0.240021	0.00112507	2	-5.98259e-05	2.70039e-07
2	1	0	0	0	17.9225	-0.238453	-0.238024	0.00127278	2	-5.98018e-05	3.02951e-07
2	1	0	0	0	17.9425	-0.236454	-0.23604	0.00143329	2	-5.97745e-05	3.38313e-07
2	1	0	0	0	17.9625	-0.234455	-0.234018	0.00161178	2	-5.97437e-05	3.77187e-07
2	1	0	0	0	17.9825	-0.232456	-0.232034	0.001828	2	-5.97092e-05	4.24159e-07
2	1	0	1	0	18.0023	-0.230457	-0.230021	0.00201275	2	-5.96708e-05	4.62975e-07
2	1	0	1	0	18.0223	-0.228458	-0.228037	0.00221572	2	-5.96284e-05	5.05266e-07
2	1	0	1	0	18.0423	-0.226458	-0.226032	0.00244034	2	-5.95816e-05	5.51596e-07
2	1	0	1	0	18.0623	-0.224459	-0.224029	0.0026642	2	-5.95303e-05	5.96858e-07
2	1	0	1	0	18.0823	-0.22246	-0.222024	0.00291539	2	-5.94742e-05	6.47286e-07
2	1	0	1	0	18.1023	-0.220461	-0.220034	0.00316925	2	-5.94134e-05	6.97344e-07
2	1	0	1	0	18.1223	-0.218462	-0.218012	0.00344651	2	-5.93471e-05	7.5138e-07
2	1	0	1	0	18.1423	-0.216462	-0.216032	0.00372512	2	-5.92753e-05	8.04744e-07
2	1	0	1	0	18.1623	-0.214463	-0.214017	0.00400029	2	-5.91977e-05	8.56131e-07
2	1	0	1	0	18.1823	-0.212464	-0.212024	0.00431118	2	-5.91143e-05	9.14075e-07
2	1	0	1	0	18.2023	-0.210465	-0.210012	0.00462018	2	-5.90248e-05	9.70292e-07
2	1	0	1	0	18.2223	-0.208466	-0.208017	0.00493947	2	-5.8929e-05	1.02749e-06
2	1	0	1	0	18.2423	-0.206466	-0.206036	0.00527065	2	-5.88265e-05	1.08594e-06
2	1	0	1	0	18.2623	-0.204467	-0.204017	0.00561829	2	-5.87174e-05	1.14623e-06
2	1	0	1	0	18.2823	-0.202468	-0.20201	0.00597983	2	-5.86014e-05	1.20798e-06
2	1	0	1	0	18.3023	-0.200469	-0.20001	0.00631544	2	-5.84784e-05	1.26315e-06
2	1	0	1	0	18.3223	-0.19847	-0.198008	0.00665506	2	-5.83484e-05	1.31776e-06
2	1	0	1	0	18.3423	-0.196471	-0.196021	0.0070189	2	-5.82116e-05	1.37585e-06
2	1	0	1	0	18.3623	-0.194471	-0.194005	0.00734699	2	-5.80678e-05	1.42535e-06
2	1	0	1	0	18.3823	-0.192472	-0.192009	0.00767898	2	-5.79171e-05	1.47443e-06
2	1	0	1	0	18.4023	-0.190473	-0.189988	0.00802139	2	-5.77597e-05	1.52397e-06
2	1	0	1	0	18.4223	-0.188474	-0.187988	0.00833561	2	-5.75959e-05	1.567e-06
2	1	0	1	0	18.4423	-0.186475	-0.185984	0.00862459	2	-5.7426e-05	1.60404e-06
2	1	0	1	0	18.4623	-0.184475	-0.183984	0.00890655	2	-5.72503e-05	1.63866e-06
2	1	0	1	0	18.4823	-0.182476	-0.182	0.00917391	2	-5.70694e-05	1.66965e-06
2	1	0	0	0	18.5021	-0.180477	-0.179974	0.00944308	2	-5.68847e-05	1.69951e-06
2	1	0	0	0	18.5221	-0.178478	-0.177998	0.00964113	2	-5.66939e-05	1.7161e-06
2	1	0	0	0	18.5421	-0.176479	-0.175987	0.00981899	2	-5.64993e-05	1.72801e-06
2	1	0	0	0	18.5621	-0.17448	-0.173974	0.0099893	2	-5.6301e-05	1.73788e-06
2	1	0	0	0	18.5821	-0.17248	-0.171983	0.0101135	2	-5.60998e-05	1.73935e-06
2	1	0	0	0	18.6021	-0.170481	-0.169978	0.0102185	2	-5.58964e-05	1.73693e-06
2	1	0	1	0	18.6531	-0.165383	-0.164943	0.0101419	2	-5.53703e-05	1.67284e-06
2	1	0	1	0	18.6731	-0.163384	-0.162893	0.010166	2	-5.51624e-05	1.65598e-06
2	1	0	1	0	18.6931	-0.161385	-0.160889	0.0101394	2	-5.49545e-05	1.63133e-06
2	1	0	1	0	18.7131	-0.159386	-0.158902	0.0100722	2	-5.47473e-05	1.60048e-06
2	1	0	1	0	18.7331	-0.157386	-0.156904	0.0100237	2	-5.45413e-05	1.57275e-06
2	1	0	1	0	18.7531	-0.155387	-0.154917	0.00995507	2	-5.43365e-05	1.54221e-06
2	1	0	1	0	18.7731	-0.153388	-0.152914	0.00986426	2	-5.41334e-05	1.50839e-06
2	1	0	1	0	18.7931	-0.151389	-0.150925	0.00976012	2	-5.39323e-05	1.47305e-06
2	1	0	1	0	18.8131	-0.14939	-0.148918	0.0096363	2	-5.37335e-05	1.43502e-06
2	1	0	1	0	18.8331	-0.147391	-0.146919	0.00950673	2	-5.35372e-05	1.39672e-06
2	1	0	1	0	18.8531	-0.145391	-0.144916	0.00940843	2	-5.33436e-05	1.36343e-06
2	1	0	1	0	18.8731	-0.143392	-0.142925	0.00920199	2	-5.3153e-05	1.31519e-06
2	1	0	1	0	18.8931	-0.141393	-0.140907	0.00906676	2	-5.29651e-05	1.27757e-06
2	1	0	1	0	18.9131	-0.139394	-0.138911	0.00891059	2	-5.27801e-05	1.23778e-06
2	1	0	1	0	18.9331	-0.137395	-0.136921	0.00876272	2	-5.25982e-05	1.1998e-06
2	1	0	1	0	18.9531	-0.135395	-0.134911	0.00862545	2	-5.24194e-05	1.16366e-06
2	1	0	1	0	18.9731	-0.133396	-0.132915	0.0084427	2	-5.22437e-05	1.12217e-06
2	1	0	0	0	18.9929	-0.131397	-0.130913	0.0083932	2	-5.20724e-05	1.09878e-06
2	1	0	0	0	19.0129	-0.129398	-0.128927	0.00815451	2	-5.19025e-05	1.05133e-06
2	1	0	0	0	19.0329	-0.127399	-0.126933	0.00803508	2	-5.17357e-05	1.01992e-06
2	1	0	0	0	19.0529	-0.125399	-0.12493	0.00786707	2	-5.15718e-05	9.82833e-07
2	1	0	0	0	19.0729	-0.1234	-0.122926	0.00776091	2	-5.14106e-05	9.54019e-07
2	1	0	0	0	19.0929	-0.121401	-0.120934	0.00758927	2	-5.12523e-05	9.178e-07
2	1	0	0	0	19.1129	-0.119402	-0.118948	0.00747496	2	-5.10965e-05	8.8913e-07
2	1	0	0	0	19.1329	-0.117403	-0.116932	0.00737789	2	-5.09435e-05	8.62715e-07
2	1	0	0	0	19.1529	-0.115404	-0.114941	0.00725701	2	-5.07928e-05	8.3413e-07
2	1	0	0	0	19.1729	-0.113404	-0.112925	0.00709479	2	-5.06445e-05	8.01182e-07
2	1	0	0	0	19.1929	-0.111405	-0.110931	0.00699683	2	-5.04985e-05	7.76169e-07
2	1	0	0	0	19.2129	-0.109406	-0.108928	0.00688159	2	-5.03547e-05	7.496e-07
2	1	0	0	0	19.2329	-0.107407	-0.106932	0.00681874	2	-5.02131e-05	7.29145e-07
2	1	0	0	0	19.2529	-0.105408	-0.104938	0.00671205	2	-5.00736e-05	7.04349e-07
2	1	0	0	0	19.2729	-0.103408	-0.102922	0.00658172	2	-4.9936e-05	6.77404e-07
2	1	0	0	0	19.2929	-0.101409	-0.10094	0.00651552	2	-4.98003e-05	6.57673e-07
2	1	0	0	0	19.3129	-0.0994101	-0.0989305	0.0063856	2	-4.96662e-05	6.3173e-07
2	1	0	0	0	19.3329	-0.0974109	-0.0969136	0.00631216	2	-4.9534e-05	6.11734e-07
2	1	0	0	0	19.3529	-0.0954117	-0.0949148	0.00621756	2	-4.94033e-05	5.90138e-07
2	1	0	0	0	19.3729	-0.0934125	-0.092927	0.0061742	2	-4.92744e-05	5.73749e-07
2	1	0	0	0	19.3929	-0.0914133	-0.0909222	0.00608763	2	-4.91469e-05	5.535e-07
2	1	0	0	0	19.4129	-0.0894141	-0.0889246	0.00605363	2	-4.90209e-05	5.38317e-07
2	1	0	0	0	19.4329	-0.087415	-0.0869247	0.00591844	2	-4.88961e-05	5.14458e-07
2	1	0	0	0	19.4529	-0.0854158	-0.0849345	0.00586986	2	-4.87728e-05	4.98554e-07
2	1	0	0	0	19.4728	-0.0834098	-0.0829285	0.00587745	2	-4.86511e-05	4.87409e-07
2	1	0	1	0	19.4927	-0.0814174	-0.0809296	0.00578296	2	-4.85307e-05	4.68013e-07
2	1	0	1	0	19.5127	-0.0794182	-0.0789407	0.00569835	2	-4.8411e-05	4.49832e-07
2	1	0	1	0	19.5327	-0.077419	-0.0769419	0.00564365	2	-4.82923e-05	4.34233e-07
2	1	0	1	0	19.5527	-0.0754198	-0.0749445	0.00561568	2	-4.81748e-05	4.20864e-07
2	1	0	1	0	19.5727	-0.0734206	-0.072962	0.00556059	2	-4.80582e-05	4.05711e-07
2	1	0	1	0	19.5927	-0.0714215	-0.0709409	0.00551893	2	-4.79425e-05	3.91518e-07
2	1	0	1	0	19.6127	-0.0694223	-0.0689653	0.00543925	2	-4.78279e-05	3.7512e-07
2	1	0	1	0	19.6327	-0.0674231	-0.0669374	0.00540747	2	-4.7714e-05	3.61962e-07
2	1	0	1	0	19.6527	-0.0654239	-0.0649377	0.00541274	2	-4.76009e-05	3.51491e-07
2	1	0	1	0	19.6727	-0.0634247	-0.0629308	0.00533499	2	-4.74888e-05	3.35735e-07
2	1	0	1	0	19.6927	-0.0614255	-0.0609409	0.00531546	2	-4.73773e-05	3.23929e-07
2	1	0	1	0	19.7127	-0.0594263	-0.0589414	0.00525122	2	-4.72665e-05	3.09514e-07
2	1	0	1	0	19.7327	-0.0574272	-0.0569406	0.00522581	2	-4.71564e-05	2.97561e-07
2	1	0	1	0	19.7527	-0.055428	-0.0549297	0.00521338	2	-4.70471e-05	2.86369e-07
2	1	0	1	0	19.7727	-0.0534288	-0.0529402	0.00516873	2	-4.69385e-05	2.73633e-07
2	1	0	1	0	19.7927	-0.0514296	-0.0509553	0.00516269	2	-4.68304e-05	2.63067e-07
2	1	0	1	0	19.8127	-0.0494304	-0.0489564	0.00514839	2	-4.6723e-05	2.52047e-07
2	1	0	1	0	19.8327	-0.0474312	-0.0469714	0.00510939	2	-4.6616e-05	2.39995e-07
2	1	0	1	0	19.8527	-0.045432	-0.0449361	0.00508543	2	-4.65095e-05	2.28519e-07
2	1	0	1	0	19.8727	-0.0434329	-0.042951	0.00503587	2	-4.64036e-05	2.16295e-07
2	1	0	1	0	19.8927	-0.0414337	-0.0409697	0.00503914	2	-4.62982e-05	2.06452e-07
2	1	0	1	0	19.9127	-0.0394345	-0.0389531	0.00495036	2	-4.61932e-05	1.92832e-07
2	1	0	1	0	19.9327	-0.0374353	-0.0369663	0.00499797	2	-4.60886e-05	1.84756e-07
2	1	0	1	0	19.9527	-0.0354361	-0.0349649	0.00494981	2	-4.59844e-05	1.7307e-07
2	1	0	1	0	19.9611	-0.0345847	-0.0340997	0.00499918	2	-4.59407e-05	1.70471e-07