File: TAP_Report/Data/MB_Suscept/6_pk_noanti_1_C01_2.mpt
EC-Lab ASCII FILE
Nb header lines : 56

Cyclic Voltammetry

Run on channel : 1 (SN 0696)
User :
Electrode connection : standard
Ewe ctrl range : min = -2.50 V, max = 2.50 V
Ewe,I filtering : 50 kHz
Safety Limits :
	Do not start on E overload
Channel : Floating
Acquisition started on : 09/12/2016 16:27:19
Saved on :
	File : 6_pk_noanti_1_C01.mpr
	Directory : \\userfs\st659\w2k\EC-Lab\Data\Meth_Blue 12-09-16\
	Host : 144.32.136.43
Device : SP-300 (SN 0182)
Address : USB
EC-Lab for windows v10.44 (software)
Internet server v10.44 (firmware)
Command interpretor v10.44 (firmware)
Electrode material :
Initial state :
Electrolyte :
Comments :
Cable : standard
Reference electrode : SCE Saturated Calomel Electrode (0.241 V)
Electrode surface area : 0.001 cm²
Characteristic mass : 0.001 g
Equivalent Weight : 0.000 g/eq.
Density : 0.000 g/cm3
Ei (V)              0.000
vs.                 Eoc
dE/dt               100.000
dE/dt unit          mV/s
E1 (V)              0.100
vs.                 Ref
Step percent        50
N                   10
E range min (V)     -2.500
E range max (V)     2.500
I Range             Auto
I Range min         Unset
I Range max         Unset
I Range init        Unset
Bandwidth           8
E2 (V)              -0.400
vs.                 Ref
nc cycles           2
Reverse Scan        1
Ef (V)              0.000
vs.                 Eoc

mode	ox/red	error	control changes	counter inc.	time/s	control/V	Ewe/V	<I>/mA	cycle number	(Q-Qo)/C	P/W
2	1	0	0	1	9.9988	-0.0282725	-0.0278507	0.00476727	2	-2.91623e-05	1.32772e-07
2	1	0	1	1	10.0143	-0.0267231	-0.0262855	0.00472533	2	-2.90846e-05	1.24208e-07
2	1	0	1	1	10.0343	-0.0247239	-0.024282	0.00468809	2	-2.89849e-05	1.13836e-07
2	1	0	1	1	10.0543	-0.0227248	-0.0223035	0.00472185	2	-2.88853e-05	1.05314e-07
2	1	0	1	1	10.0743	-0.0207256	-0.0202972	0.00470528	2	-2.87859e-05	9.55041e-08
2	1	0	1	1	10.0943	-0.0187264	-0.0182869	0.00467353	2	-2.86868e-05	8.54644e-08
2	1	0	1	1	10.1143	-0.0167272	-0.0163031	0.00467236	2	-2.85881e-05	7.61741e-08
2	1	0	1	1	10.1343	-0.014728	-0.0142871	0.00466505	2	-2.84895e-05	6.66501e-08
2	1	0	1	1	10.1543	-0.0127289	-0.0122933	0.00465311	2	-2.83911e-05	5.72023e-08
2	1	0	1	1	10.1743	-0.0107297	-0.0102883	0.00465237	2	-2.82928e-05	4.78652e-08
2	1	0	1	1	10.1943	-0.0087305	-0.00829606	0.00458102	2	-2.81948e-05	3.80044e-08
2	1	0	1	1	10.2143	-0.00673132	-0.00630208	0.00461076	2	-2.80969e-05	2.90574e-08
2	1	0	1	1	10.2343	-0.00473214	-0.00430005	0.00458766	2	-2.79994e-05	1.97272e-08
2	1	0	1	1	10.2543	-0.00273296	-0.0023048	0.0045855	2	-2.79019e-05	1.05687e-08
2	1	0	1	1	10.2743	-0.000733784	-0.000305948	0.00459178	2	-2.78044e-05	1.40484e-09
2	1	0	1	1	10.2943	0.00126539	0.00168591	0.00459113	2	-2.7707e-05	7.74023e-09
2	1	0	1	1	10.3143	0.00326457	0.00369896	0.00456662	2	-2.76097e-05	1.68917e-08
2	1	0	1	1	10.3343	0.00526375	0.00571901	0.00461365	2	-2.75125e-05	2.63855e-08
2	1	0	1	1	10.3543	0.00726293	0.00769497	0.00456397	2	-2.74154e-05	3.51196e-08
2	1	0	1	1	10.3743	0.00926211	0.0097076	0.00458435	2	-2.73184e-05	4.45031e-08
2	1	0	1	1	10.3943	0.0112613	0.0116992	0.00457717	2	-2.72215e-05	5.35494e-08
2	1	0	1	1	10.4143	0.0132605	0.0137053	0.00457445	2	-2.71246e-05	6.26942e-08
2	1	0	1	1	10.4343	0.0152596	0.0157061	0.0045723	2	-2.70277e-05	7.18128e-08
2	1	0	1	1	10.4543	0.0172588	0.01772	0.00457977	2	-2.69306e-05	8.11533e-08
2	1	0	1	1	10.4743	0.019258	0.0196828	0.00455494	2	-2.68337e-05	8.96539e-08
2	1	0	0	1	10.4941	0.0212572	0.0217071	0.00457058	2	-2.67376e-05	9.92139e-08
2	1	0	0	1	10.5141	0.0232564	0.0236765	0.00459353	2	-2.66407e-05	1.08758e-07
2	1	0	0	1	10.5341	0.0252555	0.0257082	0.00460009	2	-2.65436e-05	1.1826e-07
2	1	0	0	1	10.5541	0.0272547	0.0276941	0.00460973	2	-2.64468e-05	1.27662e-07
2	1	0	0	1	10.5741	0.0292539	0.0297054	0.00461775	2	-2.63497e-05	1.37172e-07
2	1	0	0	1	10.5941	0.0312531	0.0316941	0.00457961	2	-2.62526e-05	1.45147e-07
2	1	0	0	1	10.6141	0.0332522	0.0336758	0.00456351	2	-2.61554e-05	1.5368e-07
2	1	0	0	1	10.6341	0.0352514	0.035681	0.00459165	2	-2.60583e-05	1.63835e-07
2	1	0	0	1	10.6541	0.0372506	0.0376778	0.00459913	2	-2.59608e-05	1.73285e-07
2	1	0	0	1	10.6741	0.0392498	0.0396817	0.00463651	2	-2.58634e-05	1.83985e-07
2	1	0	0	1	10.6941	0.041249	0.041678	0.00461615	2	-2.57658e-05	1.92392e-07
2	1	0	0	1	10.7141	0.0432481	0.0436821	0.00463496	2	-2.56679e-05	2.02465e-07
2	1	0	0	1	10.7341	0.0452473	0.0456899	0.00466229	2	-2.557e-05	2.13019e-07
2	1	0	0	1	10.7541	0.0472465	0.0476788	0.00466567	2	-2.54721e-05	2.22453e-07
2	1	0	0	1	10.7741	0.0492457	0.0496796	0.00465011	2	-2.5374e-05	2.31016e-07
2	1	0	0	1	10.7941	0.0512448	0.0516795	0.00464651	2	-2.52756e-05	2.40129e-07
2	1	0	0	1	10.8141	0.053244	0.0536732	0.00468422	2	-2.51771e-05	2.51417e-07
2	1	0	0	1	10.8341	0.0552432	0.0556782	0.00466713	2	-2.50784e-05	2.59857e-07
2	1	0	0	1	10.8541	0.0572424	0.0576779	0.00466985	2	-2.49795e-05	2.69347e-07
2	1	0	0	1	10.8741	0.0592416	0.0596821	0.00471487	2	-2.48804e-05	2.81393e-07
2	1	0	0	1	10.8941	0.0612407	0.0616703	0.0047112	2	-2.47811e-05	2.90541e-07
2	1	0	0	1	10.9141	0.0632399	0.0636707	0.00471925	2	-2.46815e-05	3.00478e-07
2	1	0	0	1	10.9341	0.0652391	0.0656665	0.00473481	2	-2.45816e-05	3.10919e-07
2	1	0	0	1	10.9541	0.0672383	0.0676756	0.00474687	2	-2.44815e-05	3.21247e-07
2	1	0	1	1	10.9739	0.0692374	0.0696844	0.0047807	2	-2.43817e-05	3.3314e-07
2	1	0	1	1	10.9939	0.0712366	0.0716589	0.00474852	2	-2.4281e-05	3.40274e-07
2	1	0	1	1	11.0139	0.0732358	0.0736681	0.00481266	2	-2.418e-05	3.5454e-07
2	1	0	1	1	11.0339	0.075235	0.0756771	0.0047799	2	-2.40787e-05	3.61729e-07
2	1	0	1	1	11.0539	0.0772342	0.0776694	0.00479776	2	-2.39771e-05	3.72639e-07
2	1	0	1	1	11.0739	0.0792333	0.0796485	0.00481815	2	-2.38751e-05	3.83759e-07
2	1	0	1	1	11.0939	0.0812325	0.0816665	0.00484693	2	-2.37729e-05	3.95831e-07
2	1	0	1	1	11.1139	0.0832317	0.0836619	0.00488411	2	-2.36702e-05	4.08614e-07
2	1	0	1	1	11.1339	0.0852309	0.0856542	0.00491535	2	-2.35672e-05	4.21021e-07
2	1	0	1	1	11.1539	0.08723	0.0876429	0.00492568	2	-2.34638e-05	4.31701e-07
2	1	0	1	1	11.1739	0.0892292	0.0896403	0.00492979	2	-2.33599e-05	4.41908e-07
2	1	0	1	1	11.1939	0.0912284	0.0916533	0.00495966	2	-2.32556e-05	4.54569e-07
2	1	0	1	1	11.2139	0.0932276	0.0936655	0.00500402	2	-2.31508e-05	4.68704e-07
2	1	0	1	1	11.2339	0.0952268	0.0956699	0.00501334	2	-2.30455e-05	4.79626e-07
2	1	0	1	1	11.2539	0.0972259	0.0976535	0.00501309	2	-2.29399e-05	4.89546e-07
2	1	0	1	1	11.2739	0.0992251	0.0996606	0.00503656	2	-2.28339e-05	5.01946e-07
2	0	0	1	1	11.2818	0.0999748	0.100385	0.00476164	2	-2.27922e-05	4.77999e-07
2	0	0	0	1	11.2973	0.0984254	0.0988059	0.00247883	2	-2.27512e-05	2.44923e-07
2	0	0	0	1	11.3173	0.0964263	0.0968147	0.00192874	2	-2.27133e-05	1.86731e-07
2	0	0	0	1	11.3373	0.0944271	0.094828	0.00156258	2	-2.26841e-05	1.48176e-07
2	0	0	0	1	11.3573	0.0924279	0.0928285	0.00133794	2	-2.26609e-05	1.24199e-07
2	0	0	0	1	11.3773	0.0904287	0.0908014	0.00106846	2	-2.26424e-05	9.70179e-08
2	0	0	0	1	11.3973	0.0884295	0.0888077	0.00091015	2	-2.26276e-05	8.08283e-08
2	0	0	0	1	11.4173	0.0864304	0.0868094	0.000773164	2	-2.26159e-05	6.71179e-08
2	0	0	0	1	11.4373	0.0844312	0.0848178	0.000635436	2	-2.2607e-05	5.38963e-08
2	0	0	0	1	11.4728	0.0808827	0.0812374	0.000311359	2	-2.25972e-05	2.5294e-08
2	0	0	1	1	11.5083	0.0773341	0.0776946	-6.78726e-06	2	-2.25925e-05	5.27334e-10
2	0	0	1	1	11.5283	0.0753349	0.0756877	-0.000105986	2	-2.25936e-05	8.02186e-09
2	0	0	1	1	11.5483	0.0733358	0.0737052	-0.00017042	2	-2.25966e-05	1.25608e-08
2	0	0	1	1	11.5683	0.0713366	0.0716809	-0.00024104	2	-2.2601e-05	1.7278e-08
2	0	0	1	1	11.5883	0.0693374	0.0697172	-0.000324518	2	-2.26068e-05	2.26245e-08
2	0	0	0	1	11.6081	0.0673382	0.0677146	-0.000392107	2	-2.26143e-05	2.65513e-08
2	0	0	0	1	11.6281	0.0653391	0.0657022	-0.000454867	2	-2.26228e-05	2.98858e-08
2	0	0	0	1	11.6481	0.0633399	0.0637139	-0.000492913	2	-2.26326e-05	3.14054e-08
2	0	0	0	1	11.6681	0.0613407	0.0617144	-0.000571219	2	-2.26435e-05	3.52524e-08
2	0	0	0	1	11.6881	0.0593415	0.0597092	-0.000624579	2	-2.26555e-05	3.72931e-08
2	0	0	0	1	11.7081	0.0573423	0.0576987	-0.0006592	2	-2.26683e-05	3.8035e-08
2	0	0	0	1	11.7281	0.0553432	0.0557032	-0.000712954	2	-2.26822e-05	3.97138e-08
2	0	0	0	1	11.7481	0.053344	0.0537152	-0.000759557	2	-2.26971e-05	4.07997e-08
2	0	0	0	1	11.7681	0.0513448	0.0517043	-0.000810312	2	-2.2713e-05	4.18966e-08
2	0	0	0	1	11.7881	0.0493456	0.0496984	-0.000845705	2	-2.27296e-05	4.20302e-08
2	0	0	0	1	11.8081	0.0473464	0.04769	-0.000876918	2	-2.27471e-05	4.18202e-08
2	0	0	0	1	11.8281	0.0453473	0.0457115	-0.000916127	2	-2.27652e-05	4.18776e-08
2	0	0	0	1	11.8481	0.0433481	0.043711	-0.000959184	2	-2.27841e-05	4.19269e-08
2	0	0	0	1	11.8681	0.0413489	0.0417276	-0.000987969	2	-2.28038e-05	4.12256e-08
2	0	0	0	1	11.8881	0.0393497	0.039702	-0.00104482	2	-2.28243e-05	4.14815e-08
2	0	0	0	1	11.9081	0.0373506	0.0377119	-0.0010558	2	-2.28455e-05	3.98161e-08
2	0	0	0	1	11.9281	0.0353514	0.0357075	-0.00110569	2	-2.28673e-05	3.94813e-08
2	0	0	0	1	11.9481	0.0333522	0.0337148	-0.00112079	2	-2.28896e-05	3.77873e-08
2	0	0	0	1	11.9681	0.031353	0.0317263	-0.00115289	2	-2.29126e-05	3.65769e-08
2	0	0	0	1	11.9881	0.0293538	0.0297099	-0.00118596	2	-2.29363e-05	3.52348e-08
2	0	0	0	1	12.0081	0.0273547	0.027713	-0.00121949	2	-2.29605e-05	3.37958e-08
2	0	0	0	1	12.0281	0.0253555	0.0257325	-0.00124279	2	-2.29852e-05	3.19801e-08
2	0	0	0	1	12.0481	0.0233563	0.0237184	-0.0012669	2	-2.30105e-05	3.00489e-08
2	0	0	0	1	12.0681	0.0213571	0.0217238	-0.00129317	2	-2.30363e-05	2.80926e-08
2	0	0	1	1	12.0879	0.019358	0.0197203	-0.00133408	2	-2.30627e-05	2.63085e-08
2	0	0	1	1	12.1079	0.0173588	0.017717	-0.00135928	2	-2.30897e-05	2.40824e-08
2	0	0	1	1	12.1279	0.0153596	0.015726	-0.00137301	2	-2.31172e-05	2.15919e-08
2	0	0	1	1	12.1479	0.0133604	0.0137199	-0.00139372	2	-2.31451e-05	1.91217e-08
2	0	0	1	1	12.1679	0.0113612	0.0117175	-0.00143372	2	-2.31735e-05	1.67996e-08
2	0	0	1	1	12.1879	0.00936207	0.00971799	-0.00143434	2	-2.32024e-05	1.39389e-08
2	0	0	1	1	12.2079	0.00736289	0.0077168	-0.00145459	2	-2.32317e-05	1.12248e-08
2	0	0	1	1	12.2279	0.00536371	0.00572707	-0.00149107	2	-2.32614e-05	8.53946e-09
2	0	0	1	1	12.2479	0.00336453	0.00371486	-0.00151783	2	-2.32917e-05	5.63852e-09
2	0	0	1	1	12.2679	0.00136535	0.00171876	-0.00154574	2	-2.33224e-05	2.65677e-09
2	0	0	1	1	12.2879	-0.000633825	-0.000272669	-0.00154872	2	-2.33536e-05	4.22286e-10
2	0	0	1	1	12.3079	-0.002633	-0.00228276	-0.00158061	2	-2.33852e-05	3.60814e-09
2	0	0	1	1	12.3279	-0.00463218	-0.004285	-0.00160343	2	-2.34172e-05	6.87069e-09
2	0	0	1	1	12.3479	-0.00663136	-0.00628131	-0.00162328	2	-2.34495e-05	1.01963e-08
2	0	0	1	1	12.3679	-0.00863054	-0.00827274	-0.00164544	2	-2.34822e-05	1.36123e-08
2	0	0	1	1	12.3879	-0.0106297	-0.0102532	-0.00165768	2	-2.35154e-05	1.69965e-08
2	0	0	1	1	12.4079	-0.0126289	-0.0122902	-0.00168438	2	-2.35491e-05	2.07013e-08
2	0	0	1	1	12.4279	-0.0146281	-0.0142793	-0.00170179	2	-2.35831e-05	2.43003e-08
2	0	0	1	1	12.4479	-0.0166273	-0.0162855	-0.00172748	2	-2.36176e-05	2.81329e-08
2	0	0	1	1	12.4679	-0.0186264	-0.0182698	-0.00174408	2	-2.36523e-05	3.1864e-08
2	0	0	1	1	12.4879	-0.0206256	-0.0202709	-0.00176536	2	-2.36874e-05	3.57855e-08
2	0	0	1	1	12.5079	-0.0226248	-0.0222772	-0.00177365	2	-2.3723e-05	3.95119e-08
2	0	0	1	1	12.5279	-0.024624	-0.0242712	-0.00178116	2	-2.37589e-05	4.3231e-08
2	0	0	1	1	12.5479	-0.0266231	-0.0262631	-0.00180789	2	-2.37951e-05	4.74806e-08
2	0	0	1	1	12.5678	-0.0286223	-0.0282641	-0.00187094	2	-2.38316e-05	5.28804e-08
2	0	0	0	1	12.5877	-0.0306215	-0.0302654	-0.00185003	2	-2.38687e-05	5.59918e-08
2	0	0	0	1	12.6077	-0.0326207	-0.0322579	-0.00187351	2	-2.39061e-05	6.04354e-08
2	0	0	0	1	12.6277	-0.0346199	-0.0342691	-0.00188639	2	-2.39439e-05	6.46449e-08
2	0	0	0	1	12.6477	-0.036619	-0.0362662	-0.00190642	2	-2.39821e-05	6.91387e-08
2	0	0	0	1	12.6677	-0.0386182	-0.038264	-0.00192252	2	-2.40207e-05	7.35633e-08
2	0	0	0	1	12.6877	-0.0406174	-0.0402646	-0.00194993	2	-2.40596e-05	7.85129e-08
2	0	0	0	1	12.7077	-0.0426166	-0.0422687	-0.0019621	2	-2.40989e-05	8.29354e-08
2	0	0	0	1	12.7277	-0.0446158	-0.0442398	-0.00198492	2	-2.41385e-05	8.78123e-08
2	0	0	0	1	12.7477	-0.0466149	-0.0462603	-0.00200643	2	-2.41785e-05	9.2818e-08
2	0	0	0	1	12.7677	-0.0486141	-0.0482693	-0.00201741	2	-2.42189e-05	9.73787e-08
2	0	0	0	1	12.7877	-0.0506133	-0.0502601	-0.00203222	2	-2.42597e-05	1.02139e-07
2	0	0	0	1	12.8077	-0.0526125	-0.0522443	-0.00206491	2	-2.43007e-05	1.0788e-07
2	0	0	0	1	12.8277	-0.0546117	-0.0542451	-0.00207212	2	-2.43422e-05	1.12402e-07
2	0	0	0	1	12.8477	-0.0566108	-0.0562475	-0.00209	2	-2.4384e-05	1.17557e-07
2	0	0	0	1	12.8677	-0.05861	-0.0582396	-0.00211669	2	-2.44262e-05	1.23275e-07
2	0	0	0	1	12.8877	-0.0606092	-0.0602452	-0.00212635	2	-2.44689e-05	1.28102e-07
2	0	0	0	1	12.9077	-0.0626084	-0.0622509	-0.00216959	2	-2.4512e-05	1.35059e-07
2	0	0	0	1	12.9277	-0.0646075	-0.0642563	-0.00216879	2	-2.45554e-05	1.39358e-07
2	0	0	0	1	12.9477	-0.0666067	-0.0662643	-0.00218506	2	-2.45992e-05	1.44792e-07
2	0	0	0	1	12.9677	-0.0686059	-0.0682693	-0.00221062	2	-2.46434e-05	1.50917e-07
2	0	0	0	1	12.9877	-0.0706051	-0.0702429	-0.00223348	2	-2.46878e-05	1.56886e-07
2	0	0	0	1	13.0077	-0.0726043	-0.0722466	-0.00224866	2	-2.47328e-05	1.62458e-07
2	0	0	0	1	13.0277	-0.0746034	-0.0742474	-0.00226842	2	-2.47782e-05	1.68424e-07
2	0	0	0	1	13.0477	-0.0766026	-0.0762475	-0.00230542	2	-2.48241e-05	1.75783e-07
2	0	0	1	1	13.0675	-0.0786018	-0.0782398	-0.00233868	2	-2.487e-05	1.82978e-07
2	0	0	1	1	13.0875	-0.080601	-0.0802416	-0.00233079	2	-2.49168e-05	1.87026e-07
2	0	0	1	1	13.1075	-0.0826002	-0.0822339	-0.00236497	2	-2.4964e-05	1.9448e-07
2	0	0	1	1	13.1275	-0.0845993	-0.0842175	-0.00237871	2	-2.50115e-05	2.00329e-07
2	0	0	1	1	13.1475	-0.0865985	-0.0862458	-0.00240121	2	-2.50597e-05	2.07094e-07
2	0	0	1	1	13.1675	-0.0885977	-0.0882321	-0.00243301	2	-2.51084e-05	2.14669e-07
2	0	0	1	1	13.1875	-0.0905969	-0.0902318	-0.00246685	2	-2.51576e-05	2.22588e-07
2	0	0	1	1	13.2075	-0.092596	-0.0922434	-0.00249347	2	-2.52073e-05	2.30006e-07
2	0	0	1	1	13.2275	-0.0945952	-0.0942368	-0.00251156	2	-2.52575e-05	2.36681e-07
2	0	0	1	1	13.2475	-0.0965944	-0.0962398	-0.00254687	2	-2.53082e-05	2.45111e-07
2	0	0	1	1	13.2675	-0.0985936	-0.098244	-0.00257095	2	-2.53597e-05	2.5258e-07
2	0	0	1	1	13.2875	-0.100593	-0.100221	-0.0026115	2	-2.54116e-05	2.61726e-07
2	0	0	1	1	13.3075	-0.102592	-0.102236	-0.00264168	2	-2.54645e-05	2.70074e-07
2	0	0	1	1	13.3275	-0.104591	-0.104267	-0.00268182	2	-2.55179e-05	2.79625e-07
2	0	0	1	1	13.3475	-0.10659	-0.106253	-0.00271355	2	-2.55719e-05	2.88324e-07
2	0	0	1	1	13.3675	-0.108589	-0.108242	-0.00274545	2	-2.56266e-05	2.97174e-07
2	0	0	1	1	13.3875	-0.110589	-0.110255	-0.00279968	2	-2.56822e-05	3.0868e-07
2	0	0	1	1	13.4075	-0.112588	-0.112235	-0.0028313	2	-2.57388e-05	3.17771e-07
2	0	0	1	1	13.4275	-0.114587	-0.114244	-0.00289467	2	-2.57963e-05	3.30699e-07
2	0	0	1	1	13.4475	-0.116586	-0.116245	-0.00292898	2	-2.58547e-05	3.40479e-07
2	0	0	1	1	13.4675	-0.118585	-0.11823	-0.0029896	2	-2.59141e-05	3.53462e-07
2	0	0	1	1	13.4875	-0.120585	-0.120253	-0.00302828	2	-2.59746e-05	3.64161e-07
2	0	0	1	1	13.5075	-0.122584	-0.122239	-0.00310809	2	-2.60363e-05	3.7993e-07
2	0	0	1	1	13.5275	-0.124583	-0.124256	-0.00318388	2	-2.60994e-05	3.95615e-07
2	0	0	0	1	13.5473	-0.126582	-0.126257	-0.00328254	2	-2.61635e-05	4.14443e-07
2	0	0	0	1	13.5673	-0.128581	-0.128232	-0.00331979	2	-2.62295e-05	4.25704e-07
2	0	0	0	1	13.5873	-0.13058	-0.130229	-0.00340512	2	-2.6297e-05	4.43446e-07
2	0	0	0	1	13.6073	-0.13258	-0.132224	-0.00350184	2	-2.63664e-05	4.63029e-07
2	0	0	0	1	13.6273	-0.134579	-0.134225	-0.00359699	2	-2.64375e-05	4.82805e-07
2	0	0	0	1	13.6473	-0.136578	-0.136222	-0.00369803	2	-2.65107e-05	5.03753e-07
2	0	0	0	1	13.6673	-0.138577	-0.138217	-0.00382172	2	-2.65863e-05	5.28229e-07
2	0	0	0	1	13.6873	-0.140576	-0.140237	-0.00394537	2	-2.66642e-05	5.53287e-07
2	0	0	0	1	13.7073	-0.142576	-0.142236	-0.00408208	2	-2.67446e-05	5.80618e-07
2	0	0	0	1	13.7273	-0.144575	-0.144233	-0.00421182	2	-2.68277e-05	6.07484e-07
2	0	0	0	1	13.7473	-0.146574	-0.146226	-0.00437093	2	-2.69139e-05	6.39144e-07
2	0	0	0	1	13.7673	-0.148573	-0.148217	-0.00453192	2	-2.7003e-05	6.71708e-07
2	0	0	0	1	13.7873	-0.150572	-0.150241	-0.00471004	2	-2.70959e-05	7.0764e-07
2	0	0	0	1	13.8073	-0.152571	-0.15224	-0.00491033	2	-2.71923e-05	7.47546e-07
2	0	0	0	1	13.8273	-0.154571	-0.154236	-0.00510317	2	-2.72927e-05	7.87091e-07
2	0	0	0	1	13.8473	-0.15657	-0.156232	-0.00532114	2	-2.73972e-05	8.31334e-07
2	0	0	0	1	13.8673	-0.158569	-0.158237	-0.00554705	2	-2.75061e-05	8.7775e-07
2	0	0	0	1	13.8873	-0.160568	-0.160226	-0.00578408	2	-2.76197e-05	9.2676e-07
2	0	0	0	1	13.9073	-0.162567	-0.162228	-0.00604298	2	-2.77383e-05	9.80339e-07
2	0	0	0	1	13.9273	-0.164567	-0.164238	-0.00631149	2	-2.78621e-05	1.03659e-06
2	0	0	0	1	13.9473	-0.166566	-0.16626	-0.0065923	2	-2.79915e-05	1.09604e-06
2	0	0	0	1	13.9673	-0.168565	-0.168263	-0.00687842	2	-2.81263e-05	1.15739e-06
2	0	0	0	1	13.9873	-0.170564	-0.17025	-0.00716663	2	-2.8267e-05	1.22012e-06
2	0	0	0	1	14.0073	-0.172563	-0.172262	-0.00747814	2	-2.84136e-05	1.2882e-06
2	0	0	0	1	14.0272	-0.17456	-0.174257	-0.00781803	2	-2.85657e-05	1.36234e-06
2	0	0	1	1	14.0471	-0.176562	-0.176263	-0.00810139	2	-2.87242e-05	1.42797e-06
2	0	0	1	1	14.0671	-0.178561	-0.178244	-0.00839918	2	-2.88893e-05	1.49711e-06
2	0	0	1	1	14.0871	-0.18056	-0.18025	-0.00872285	2	-2.90607e-05	1.57229e-06
2	0	0	1	1	14.1071	-0.182559	-0.182244	-0.00901854	2	-2.92385e-05	1.64358e-06
2	0	0	1	1	14.1271	-0.184558	-0.184255	-0.00933074	2	-2.94224e-05	1.71924e-06
2	0	0	1	1	14.1471	-0.186557	-0.186228	-0.0096298	2	-2.96123e-05	1.79334e-06
2	0	0	1	1	14.1671	-0.188557	-0.188266	-0.00993938	2	-2.98084e-05	1.87124e-06
2	0	0	1	1	14.2026	-0.192105	-0.19179	-0.0103804	2	-3.01704e-05	1.99086e-06
2	0	0	0	1	14.2381	-0.195654	-0.195318	-0.0106044	2	-3.05438e-05	2.07124e-06
2	0	0	0	1	14.2581	-0.197653	-0.197304	-0.010787	2	-3.07638e-05	2.12832e-06
2	0	0	0	1	14.2781	-0.199652	-0.199313	-0.0110853	2	-3.09885e-05	2.20945e-06
2	0	0	0	1	14.2981	-0.201651	-0.201312	-0.0113026	2	-3.12177e-05	2.27536e-06
2	0	0	0	1	14.3181	-0.20365	-0.203328	-0.0115063	2	-3.14511e-05	2.33955e-06
2	0	0	0	1	14.3381	-0.20565	-0.205344	-0.0116788	2	-3.16884e-05	2.39818e-06
2	0	0	0	1	14.3581	-0.207649	-0.207315	-0.0118655	2	-3.19291e-05	2.4599e-06
2	0	0	0	1	14.3781	-0.209648	-0.209319	-0.0119766	2	-3.21729e-05	2.50693e-06
2	0	0	0	1	14.3981	-0.211647	-0.211304	-0.0121225	2	-3.24196e-05	2.56153e-06
2	0	0	0	1	14.4181	-0.213646	-0.213321	-0.0122611	2	-3.2669e-05	2.61555e-06
2	0	0	0	1	14.4381	-0.215646	-0.215302	-0.0123452	2	-3.29207e-05	2.65794e-06
2	0	0	0	1	14.4581	-0.217645	-0.217318	-0.0124958	2	-3.31745e-05	2.71556e-06
2	0	0	0	1	14.4781	-0.219644	-0.219306	-0.012584	2	-3.34301e-05	2.75974e-06
2	0	0	0	1	14.4981	-0.221643	-0.221308	-0.0126264	2	-3.36873e-05	2.79433e-06
2	0	0	0	1	14.518	-0.223649	-0.223331	-0.0126739	2	-3.39446e-05	2.83047e-06
2	0	0	1	1	14.5379	-0.225641	-0.225313	-0.0127321	2	-3.42032e-05	2.8687e-06
2	0	0	1	1	14.5579	-0.227641	-0.227315	-0.0127953	2	-3.44638e-05	2.90855e-06
2	0	0	1	1	14.5779	-0.22964	-0.22932	-0.012832	2	-3.4725e-05	2.94263e-06
2	0	0	1	1	14.5979	-0.231639	-0.231304	-0.0128529	2	-3.49868e-05	2.97292e-06
2	0	0	1	1	14.6179	-0.233638	-0.233309	-0.0128401	2	-3.52491e-05	2.9957e-06
2	0	0	1	1	14.6379	-0.235637	-0.235291	-0.0128748	2	-3.55115e-05	3.02932e-06
2	0	0	1	1	14.6579	-0.237636	-0.237285	-0.0129065	2	-3.5774e-05	3.0625e-06
2	0	0	1	1	14.6779	-0.239636	-0.239313	-0.0128649	2	-3.60368e-05	3.07874e-06
2	0	0	1	1	14.6979	-0.241635	-0.241304	-0.0128679	2	-3.62992e-05	3.10508e-06
2	0	0	1	1	14.7179	-0.243634	-0.24332	-0.0128661	2	-3.65616e-05	3.13058e-06
2	0	0	1	1	14.7379	-0.245633	-0.245304	-0.0128052	2	-3.68237e-05	3.14117e-06
2	0	0	1	1	14.7579	-0.247632	-0.24729	-0.0128126	2	-3.70853e-05	3.16844e-06
2	0	0	1	1	14.7779	-0.249632	-0.249298	-0.0127897	2	-3.73465e-05	3.18846e-06
2	0	0	1	1	14.7979	-0.251631	-0.251309	-0.0127652	2	-3.76073e-05	3.20801e-06
2	0	0	1	1	14.8179	-0.25363	-0.253299	-0.0127313	2	-3.78675e-05	3.22482e-06
2	0	0	1	1	14.8379	-0.255629	-0.255311	-0.0126952	2	-3.81271e-05	3.24123e-06
2	0	0	1	1	14.8579	-0.257628	-0.257296	-0.0126442	2	-3.83861e-05	3.25329e-06
2	0	0	1	1	14.8779	-0.259627	-0.259284	-0.0126546	2	-3.86443e-05	3.28112e-06
2	0	0	1	1	14.8979	-0.261627	-0.261284	-0.0126057	2	-3.8902e-05	3.29366e-06
2	0	0	1	1	14.9179	-0.263626	-0.263282	-0.0125639	2	-3.91588e-05	3.30785e-06
2	0	0	1	1	14.9379	-0.265625	-0.26529	-0.0125254	2	-3.94151e-05	3.32285e-06
2	0	0	1	1	14.9579	-0.267624	-0.267311	-0.0125196	2	-3.96708e-05	3.34663e-06
2	0	0	1	1	14.9779	-0.269623	-0.269304	-0.0124749	2	-3.99256e-05	3.35955e-06
2	0	0	1	1	14.9978	-0.271613	-0.27128	-0.012452	2	-4.01787e-05	3.37798e-06
2	0	0	0	1	15.0177	-0.273622	-0.273293	-0.012391	2	-4.04312e-05	3.38638e-06
2	0	0	0	1	15.0377	-0.275621	-0.275287	-0.0123352	2	-4.06839e-05	3.39572e-06
2	0	0	0	1	15.0577	-0.27762	-0.277301	-0.0123412	2	-4.09362e-05	3.42223e-06
2	0	0	0	1	15.0777	-0.279619	-0.279296	-0.012333	2	-4.11878e-05	3.44455e-06
2	0	0	0	1	15.0977	-0.281618	-0.281278	-0.0122753	2	-4.14385e-05	3.45279e-06
2	0	0	0	1	15.1177	-0.283618	-0.28328	-0.0122602	2	-4.16888e-05	3.47308e-06
2	0	0	0	1	15.1377	-0.285617	-0.285287	-0.012227	2	-4.19384e-05	3.48819e-06
2	0	0	0	1	15.1577	-0.287616	-0.287269	-0.0121605	2	-4.21874e-05	3.49332e-06
2	0	0	0	1	15.1777	-0.289615	-0.289262	-0.0121443	2	-4.24358e-05	3.5129e-06
2	0	0	0	1	15.1977	-0.291614	-0.291279	-0.0120889	2	-4.26838e-05	3.52123e-06
2	0	0	0	1	15.2177	-0.293613	-0.293279	-0.0120644	2	-4.29313e-05	3.53824e-06
2	0	0	0	1	15.2377	-0.295613	-0.295265	-0.0120866	2	-4.31784e-05	3.56874e-06
2	0	0	0	1	15.2577	-0.297612	-0.297285	-0.0120656	2	-4.3425e-05	3.58694e-06
2	0	0	0	1	15.2777	-0.299611	-0.299295	-0.0120255	2	-4.36712e-05	3.59915e-06
2	0	0	0	1	15.2977	-0.30161	-0.30127	-0.0120164	2	-4.39169e-05	3.6202e-06
2	0	0	0	1	15.3177	-0.303609	-0.303282	-0.0119942	2	-4.41624e-05	3.63764e-06
2	0	0	0	1	15.3377	-0.305609	-0.305284	-0.012021	2	-4.44074e-05	3.66981e-06
2	0	0	0	1	15.3577	-0.307608	-0.307279	-0.0119573	2	-4.46523e-05	3.67424e-06
2	0	0	0	1	15.3777	-0.309607	-0.309273	-0.0119669	2	-4.4897e-05	3.70105e-06
2	0	0	0	1	15.3977	-0.311606	-0.311267	-0.0119281	2	-4.51414e-05	3.71282e-06
2	0	0	0	1	15.4177	-0.313605	-0.313273	-0.0119594	2	-4.53854e-05	3.74655e-06
2	0	0	0	1	15.4377	-0.315604	-0.31528	-0.0119199	2	-4.56295e-05	3.75811e-06
2	0	0	0	1	15.4577	-0.317604	-0.317272	-0.0119151	2	-4.58733e-05	3.78033e-06
2	0	0	0	1	15.4777	-0.319603	-0.319261	-0.0119348	2	-4.61174e-05	3.81031e-06
2	0	0	1	1	15.4975	-0.321602	-0.321277	-0.0119788	2	-4.63591e-05	3.84852e-06
2	0	0	1	1	15.5175	-0.323601	-0.323274	-0.0119367	2	-4.6603e-05	3.85881e-06
2	0	0	1	1	15.5375	-0.3256	-0.32527	-0.0119173	2	-4.68468e-05	3.87634e-06
2	0	0	1	1	15.5575	-0.3276	-0.327266	-0.0119332	2	-4.70906e-05	3.90534e-06
2	0	0	1	1	15.5775	-0.329599	-0.329271	-0.0119479	2	-4.73348e-05	3.93411e-06
2	0	0	1	1	15.5975	-0.331598	-0.331274	-0.0119507	2	-4.75789e-05	3.95896e-06
2	0	0	1	1	15.6175	-0.333597	-0.333273	-0.0119686	2	-4.7823e-05	3.98881e-06
2	0	0	1	1	15.6375	-0.335596	-0.335262	-0.0119964	2	-4.80676e-05	4.02194e-06
2	0	0	1	1	15.6575	-0.337595	-0.337258	-0.0119722	2	-4.83123e-05	4.03773e-06
2	0	0	1	1	15.6775	-0.339595	-0.339259	-0.0119988	2	-4.85573e-05	4.0707e-06
2	0	0	1	1	15.6975	-0.341594	-0.341247	-0.0120333	2	-4.88026e-05	4.10632e-06
2	0	0	1	1	15.7175	-0.343593	-0.343259	-0.0120584	2	-4.90483e-05	4.13917e-06
2	0	0	1	1	15.7375	-0.345592	-0.345262	-0.0120561	2	-4.92944e-05	4.1625e-06
2	0	0	1	1	15.7575	-0.347591	-0.347263	-0.0120608	2	-4.95408e-05	4.18827e-06
2	0	0	1	1	15.7775	-0.349591	-0.349265	-0.0120488	2	-4.97878e-05	4.20823e-06
2	0	0	1	1	15.7975	-0.35159	-0.351269	-0.0121177	2	-5.00351e-05	4.25659e-06
2	0	0	1	1	15.8175	-0.353589	-0.353258	-0.0121634	2	-5.0283e-05	4.29683e-06
2	0	0	1	1	15.8375	-0.355588	-0.355262	-0.0121772	2	-5.05315e-05	4.3261e-06
2	0	0	1	1	15.8575	-0.357587	-0.35725	-0.0122202	2	-5.07805e-05	4.36566e-06
2	0	0	1	1	15.8775	-0.359586	-0.359256	-0.012235	2	-5.10302e-05	4.39549e-06
2	0	0	1	1	15.8975	-0.361586	-0.361268	-0.0122675	2	-5.12806e-05	4.43187e-06
2	0	0	1	1	15.9175	-0.363585	-0.363263	-0.0123131	2	-5.15315e-05	4.47288e-06
2	0	0	1	1	15.9375	-0.365584	-0.365243	-0.0123245	2	-5.17831e-05	4.50142e-06
2	0	0	1	1	15.9575	-0.367583	-0.367255	-0.0124263	2	-5.20357e-05	4.56361e-06
2	0	0	1	1	15.9774	-0.369587	-0.369252	-0.0124738	2	-5.22879e-05	4.60599e-06
2	0	0	0	1	15.9973	-0.371581	-0.371249	-0.0124741	2	-5.2541e-05	4.63099e-06
2	0	0	0	1	16.0173	-0.373581	-0.373257	-0.0125076	2	-5.27961e-05	4.66853e-06
2	0	0	0	1	16.0373	-0.37558	-0.375245	-0.0125509	2	-5.3052e-05	4.70968e-06
2	0	0	0	1	16.0573	-0.377579	-0.37724	-0.0126351	2	-5.33088e-05	4.76646e-06
2	0	0	0	1	16.0773	-0.379578	-0.379246	-0.012678	2	-5.35665e-05	4.80809e-06
2	0	0	0	1	16.0973	-0.381577	-0.381249	-0.0127091	2	-5.38254e-05	4.84532e-06
2	0	0	0	1	16.1173	-0.383577	-0.383267	-0.0128037	2	-5.40853e-05	4.90725e-06
2	0	0	0	1	16.1373	-0.385576	-0.385233	-0.0127941	2	-5.43462e-05	4.92872e-06
2	0	0	0	1	16.1573	-0.387575	-0.387233	-0.0128674	2	-5.46082e-05	4.98267e-06
2	0	0	0	1	16.1773	-0.389574	-0.389231	-0.0129186	2	-5.48714e-05	5.02833e-06
2	0	0	0	1	16.1973	-0.391573	-0.391237	-0.0129742	2	-5.51357e-05	5.07597e-06
2	0	0	0	1	16.2173	-0.393572	-0.393228	-0.0130565	2	-5.54014e-05	5.1342e-06
2	0	0	0	1	16.2373	-0.395572	-0.395235	-0.0131208	2	-5.56682e-05	5.1858e-06
2	0	0	0	1	16.2573	-0.397571	-0.397224	-0.0131933	2	-5.59363e-05	5.24069e-06
2	0	0	0	1	16.2768	-0.39952	-0.399164	-0.0132248	2	-5.61991e-05	5.27885e-06
2	1	0	1	0	16.2822	-0.39992	-0.399495	-0.0117809	2	-5.62707e-05	4.70641e-06
2	1	0	0	0	16.2977	-0.39837	-0.397987	-0.0101095	2	-5.64319e-05	4.02343e-06
2	1	0	0	0	16.3177	-0.396371	-0.395984	-0.00945949	2	-5.66217e-05	3.74581e-06
2	1	0	0	0	16.3377	-0.394372	-0.393988	-0.00894674	2	-5.68e-05	3.52491e-06
2	1	0	0	0	16.3577	-0.392373	-0.391997	-0.00858041	2	-5.69701e-05	3.3635e-06
2	1	0	0	0	16.3777	-0.390374	-0.38998	-0.00828491	2	-5.71334e-05	3.23095e-06
2	1	0	0	0	16.3977	-0.388375	-0.387973	-0.00797883	2	-5.72908e-05	3.09557e-06
2	1	0	0	0	16.4177	-0.386375	-0.385983	-0.0077442	2	-5.74429e-05	2.98913e-06
2	1	0	0	0	16.4377	-0.384376	-0.383977	-0.00748586	2	-5.75901e-05	2.8744e-06
2	1	0	0	0	16.4577	-0.382377	-0.381989	-0.00728906	2	-5.77327e-05	2.78434e-06
2	1	0	0	0	16.4777	-0.380378	-0.37999	-0.00707743	2	-5.7871e-05	2.68935e-06
2	1	0	0	0	16.4977	-0.378379	-0.377989	-0.00689014	2	-5.80052e-05	2.6044e-06
2	1	0	0	0	16.5177	-0.376379	-0.376005	-0.00670288	2	-5.81357e-05	2.52032e-06
2	1	0	0	0	16.5377	-0.37438	-0.373999	-0.00649181	2	-5.82624e-05	2.42793e-06
2	1	0	0	0	16.5577	-0.372381	-0.372005	-0.00631845	2	-5.83857e-05	2.35049e-06
2	1	0	0	0	16.5777	-0.370382	-0.370006	-0.00618937	2	-5.85056e-05	2.29011e-06
2	1	0	1	0	16.5975	-0.368383	-0.367987	-0.0060029	2	-5.86206e-05	2.20899e-06
2	1	0	1	0	16.6175	-0.366384	-0.365998	-0.0058582	2	-5.87338e-05	2.14409e-06
2	1	0	1	0	16.6375	-0.364384	-0.36398	-0.00570175	2	-5.88441e-05	2.07532e-06
2	1	0	1	0	16.6575	-0.362385	-0.362006	-0.00557181	2	-5.89515e-05	2.01703e-06
2	1	0	1	0	16.6775	-0.360386	-0.360009	-0.00543247	2	-5.90561e-05	1.95574e-06
2	1	0	1	0	16.6975	-0.358387	-0.358004	-0.00526921	2	-5.91578e-05	1.8864e-06
2	1	0	1	0	16.7175	-0.356388	-0.356003	-0.00515305	2	-5.92568e-05	1.8345e-06
2	1	0	1	0	16.7375	-0.354389	-0.354012	-0.00499113	2	-5.93532e-05	1.76692e-06
2	1	0	1	0	16.7575	-0.352389	-0.352004	-0.00486965	2	-5.94469e-05	1.71414e-06
2	1	0	1	0	16.7775	-0.35039	-0.350016	-0.00477745	2	-5.95381e-05	1.67219e-06
2	1	0	1	0	16.7975	-0.348391	-0.347996	-0.00465558	2	-5.9627e-05	1.62013e-06
2	1	0	1	0	16.8175	-0.346392	-0.345991	-0.00454384	2	-5.97133e-05	1.57213e-06
2	1	0	0	0	16.8685	-0.341294	-0.340887	-0.00399624	2	-5.9925e-05	1.36227e-06
2	1	0	0	0	16.8885	-0.339295	-0.338886	-0.00390641	2	-6.00037e-05	1.32383e-06
2	1	0	0	0	16.9085	-0.337296	-0.336887	-0.00378139	2	-6.00804e-05	1.2739e-06
2	1	0	0	0	16.9285	-0.335296	-0.33489	-0.0036644	2	-6.01548e-05	1.22717e-06
2	1	0	0	0	16.9485	-0.333297	-0.332884	-0.00359902	2	-6.02272e-05	1.19806e-06
2	1	0	0	0	16.9685	-0.331298	-0.330906	-0.00347117	2	-6.02975e-05	1.14863e-06
2	1	0	0	0	16.9885	-0.329299	-0.328904	-0.00337326	2	-6.03658e-05	1.10948e-06
2	1	0	0	0	17.0085	-0.3273	-0.326926	-0.00327543	2	-6.04319e-05	1.07082e-06
2	1	0	0	0	17.0285	-0.3253	-0.32491	-0.00317721	2	-6.04961e-05	1.03231e-06
2	1	0	0	0	17.0485	-0.323301	-0.322932	-0.00308582	2	-6.05585e-05	9.96511e-07
2	1	0	0	0	17.0685	-0.321302	-0.320911	-0.0029767	2	-6.06189e-05	9.55256e-07
2	1	0	1	0	17.0883	-0.319303	-0.318908	-0.00287514	2	-6.06765e-05	9.16904e-07
2	1	0	1	0	17.1083	-0.317304	-0.316914	-0.00278904	2	-6.07328e-05	8.83885e-07
2	1	0	1	0	17.1283	-0.315305	-0.31492	-0.00269131	2	-6.07874e-05	8.47546e-07
2	1	0	1	0	17.1483	-0.313305	-0.312908	-0.00260574	2	-6.08404e-05	8.15357e-07
2	1	0	1	0	17.1683	-0.311306	-0.310917	-0.00252494	2	-6.08915e-05	7.85046e-07
2	1	0	1	0	17.1883	-0.309307	-0.308929	-0.00242692	2	-6.09408e-05	7.49745e-07
2	1	0	1	0	17.2083	-0.307308	-0.306922	-0.00235064	2	-6.09883e-05	7.21462e-07
2	1	0	1	0	17.2283	-0.305309	-0.304921	-0.00224606	2	-6.1034e-05	6.84873e-07
2	1	0	1	0	17.2483	-0.30331	-0.30291	-0.00216646	2	-6.1078e-05	6.56245e-07
2	1	0	1	0	17.2683	-0.30131	-0.300926	-0.00208061	2	-6.11202e-05	6.2611e-07
2	1	0	1	0	17.2883	-0.299311	-0.298919	-0.00200387	2	-6.11609e-05	5.98995e-07
2	1	0	1	0	17.3083	-0.297312	-0.296926	-0.00191409	2	-6.11998e-05	5.68344e-07
2	1	0	1	0	17.3283	-0.295313	-0.294918	-0.00181958	2	-6.12369e-05	5.36627e-07
2	1	0	1	0	17.3483	-0.293314	-0.292924	-0.00173278	2	-6.12725e-05	5.07575e-07
2	1	0	1	0	17.3683	-0.291314	-0.290916	-0.00165493	2	-6.1306e-05	4.81444e-07
2	1	0	1	0	17.3883	-0.289315	-0.288908	-0.00156526	2	-6.13381e-05	4.52215e-07
2	1	0	1	0	17.4083	-0.287316	-0.286927	-0.00148462	2	-6.13684e-05	4.25978e-07
2	1	0	1	0	17.4283	-0.285317	-0.284924	-0.00141049	2	-6.13972e-05	4.01883e-07
2	1	0	1	0	17.4483	-0.283318	-0.282914	-0.00131046	2	-6.14241e-05	3.70749e-07
2	1	0	1	0	17.4683	-0.281319	-0.280918	-0.0012303	2	-6.14494e-05	3.45613e-07
2	1	0	1	0	17.4883	-0.279319	-0.278922	-0.00114429	2	-6.1473e-05	3.19168e-07
2	1	0	1	0	17.5083	-0.27732	-0.276923	-0.00105135	2	-6.14948e-05	2.91144e-07
2	1	0	1	0	17.5283	-0.275321	-0.274927	-0.000975615	2	-6.15148e-05	2.68223e-07
2	1	0	1	0	17.5483	-0.273322	-0.272917	-0.000873974	2	-6.15331e-05	2.38523e-07
2	1	0	0	0	17.5681	-0.271323	-0.270932	-0.000781647	2	-6.1549e-05	2.11773e-07
2	1	0	0	0	17.5881	-0.269323	-0.268925	-0.000693022	2	-6.15635e-05	1.86371e-07
2	1	0	0	0	17.6081	-0.267324	-0.266928	-0.000588575	2	-6.15761e-05	1.57107e-07
2	1	0	0	0	17.6281	-0.265325	-0.264924	-0.000490002	2	-6.15867e-05	1.29813e-07
2	1	0	0	0	17.6481	-0.263326	-0.262929	-0.000384418	2	-6.15955e-05	1.01075e-07
2	1	0	0	0	17.6681	-0.261327	-0.26093	-0.000303367	2	-6.16023e-05	7.91577e-08
2	1	0	0	0	17.6881	-0.259328	-0.258942	-0.000208417	2	-6.1607e-05	5.39678e-08
2	1	0	0	0	17.7081	-0.257328	-0.256937	-8.25242e-05	2	-6.16095e-05	2.12035e-08
2	1	0	0	0	17.7281	-0.255329	-0.254932	3.63817e-05	2	-6.16098e-05	9.27486e-09
2	1	0	0	0	17.7481	-0.25333	-0.252915	0.000145661	2	-6.16079e-05	3.68399e-08
2	1	0	0	0	17.7681	-0.251331	-0.250932	0.000275111	2	-6.16035e-05	6.90341e-08
2	1	0	0	0	17.7881	-0.249332	-0.248917	0.000401675	2	-6.15967e-05	9.99839e-08
2	1	0	0	0	17.8081	-0.247333	-0.246941	0.000523334	2	-6.15873e-05	1.29233e-07
2	1	0	0	0	17.8281	-0.245333	-0.244932	0.000668413	2	-6.15753e-05	1.63716e-07
2	1	0	0	0	17.8481	-0.243334	-0.242924	0.000793194	2	-6.15604e-05	1.92686e-07
2	1	0	0	0	17.8681	-0.241335	-0.240909	0.000970545	2	-6.15424e-05	2.33813e-07
2	1	0	0	0	17.8881	-0.239336	-0.238934	0.00112291	2	-6.15215e-05	2.68301e-07
2	1	0	0	0	17.9081	-0.237337	-0.236938	0.00127394	2	-6.14973e-05	3.01844e-07
2	1	0	0	0	17.9281	-0.235337	-0.234932	0.00144807	2	-6.14697e-05	3.40198e-07
2	1	0	0	0	17.9481	-0.233338	-0.232935	0.0016441	2	-6.14387e-05	3.8297e-07
2	1	0	0	0	17.9681	-0.231339	-0.230926	0.0018335	2	-6.14037e-05	4.23403e-07
2	1	0	0	0	17.9881	-0.22934	-0.228949	0.00202267	2	-6.1365e-05	4.6309e-07
2	1	0	0	0	18.0081	-0.227341	-0.226935	0.00224395	2	-6.1322e-05	5.0923e-07
2	1	0	0	0	18.0281	-0.225342	-0.224937	0.00247204	2	-6.12746e-05	5.56054e-07
2	1	0	0	0	18.048	-0.22334	-0.222933	0.00275288	2	-6.12227e-05	6.13708e-07
2	1	0	1	0	18.0679	-0.221343	-0.220943	0.00294347	2	-6.1166e-05	6.50337e-07
2	1	0	1	0	18.0879	-0.219344	-0.218933	0.00322564	2	-6.1104e-05	7.062e-07
2	1	0	1	0	18.1079	-0.217345	-0.216944	0.00350398	2	-6.10366e-05	7.60165e-07
2	1	0	1	0	18.1279	-0.215346	-0.21493	0.00377005	2	-6.09637e-05	8.10297e-07
2	1	0	1	0	18.1479	-0.213346	-0.212928	0.00406965	2	-6.0885e-05	8.66542e-07
2	1	0	1	0	18.1679	-0.211347	-0.210938	0.00437938	2	-6.08003e-05	9.23779e-07
2	1	0	1	0	18.1879	-0.209348	-0.208935	0.00468627	2	-6.07095e-05	9.79126e-07
2	1	0	1	0	18.2079	-0.207349	-0.206945	0.00502628	2	-6.06121e-05	1.04017e-06
2	1	0	1	0	18.2279	-0.20535	-0.204931	0.00534609	2	-6.05081e-05	1.09558e-06
2	1	0	1	0	18.2479	-0.203351	-0.202937	0.00569212	2	-6.03975e-05	1.15514e-06
2	1	0	1	0	18.2679	-0.201351	-0.200927	0.00604206	2	-6.028e-05	1.21401e-06
2	1	0	1	0	18.2879	-0.199352	-0.198923	0.00639617	2	-6.01553e-05	1.27235e-06
2	1	0	1	0	18.3079	-0.197353	-0.196921	0.00672713	2	-6.00239e-05	1.32471e-06
2	1	0	1	0	18.3279	-0.195354	-0.194938	0.00706573	2	-5.98856e-05	1.37738e-06
2	1	0	1	0	18.3479	-0.193355	-0.192924	0.00743251	2	-5.97403e-05	1.43391e-06
2	1	0	1	0	18.3679	-0.191355	-0.190914	0.00774963	2	-5.95883e-05	1.47951e-06
2	1	0	1	0	18.3879	-0.189356	-0.188918	0.00808713	2	-5.94296e-05	1.5278e-06
2	1	0	1	0	18.4079	-0.187357	-0.186903	0.00838948	2	-5.92645e-05	1.56802e-06
2	1	0	1	0	18.4279	-0.185358	-0.184903	0.00869007	2	-5.90935e-05	1.60682e-06
2	1	0	1	0	18.4479	-0.183359	-0.182898	0.00896347	2	-5.89168e-05	1.63941e-06
2	1	0	1	0	18.4679	-0.18136	-0.180891	0.00921053	2	-5.8735e-05	1.6661e-06
2	1	0	1	0	18.4879	-0.17936	-0.1789	0.00943892	2	-5.85482e-05	1.68863e-06
2	1	0	1	0	18.5079	-0.177361	-0.176905	0.0096528	2	-5.83572e-05	1.70763e-06
2	1	0	1	0	18.5279	-0.175362	-0.174901	0.00982847	2	-5.81622e-05	1.71901e-06
2	1	0	0	0	18.5477	-0.173363	-0.172875	0.0099919	2	-5.79655e-05	1.72735e-06
2	1	0	0	0	18.5677	-0.171364	-0.170889	0.0101074	2	-5.77643e-05	1.72725e-06
2	1	0	0	0	18.5877	-0.169365	-0.168909	0.0101901	2	-5.75609e-05	1.7212e-06
2	1	0	0	0	18.6232	-0.165816	-0.165354	0.010146	2	-5.71956e-05	1.67767e-06
2	1	0	1	0	18.6587	-0.162267	-0.161813	0.0100971	2	-5.68285e-05	1.63385e-06
2	1	0	1	0	18.6787	-0.160268	-0.159821	0.0100487	2	-5.66214e-05	1.606e-06
2	1	0	1	0	18.6987	-0.158269	-0.157827	0.0100236	2	-5.64151e-05	1.58199e-06
2	1	0	1	0	18.7187	-0.15627	-0.15583	0.00997834	2	-5.62098e-05	1.55492e-06
2	1	0	1	0	18.7387	-0.154271	-0.153822	0.00988792	2	-5.6006e-05	1.52098e-06
2	1	0	1	0	18.7587	-0.152272	-0.151827	0.00982893	2	-5.5804e-05	1.49229e-06
2	1	0	1	0	18.7787	-0.150272	-0.149828	0.00966644	2	-5.56041e-05	1.4483e-06
2	1	0	1	0	18.7987	-0.148273	-0.147844	0.0095734	2	-5.54065e-05	1.41537e-06
2	1	0	1	0	18.8187	-0.146274	-0.145842	0.00938333	2	-5.52115e-05	1.36849e-06
2	1	0	1	0	18.8387	-0.144275	-0.143839	0.00924248	2	-5.50191e-05	1.32943e-06
2	1	0	1	0	18.8587	-0.142276	-0.141832	0.00917483	2	-5.48294e-05	1.30128e-06
2	1	0	1	0	18.8787	-0.140276	-0.139834	0.00898949	2	-5.46429e-05	1.25704e-06
2	1	0	1	0	18.8987	-0.138277	-0.13783	0.00883962	2	-5.44592e-05	1.21837e-06
2	1	0	1	0	18.9187	-0.136278	-0.135843	0.00867866	2	-5.42784e-05	1.17893e-06
2	1	0	1	0	18.9387	-0.134279	-0.133839	0.00854648	2	-5.41008e-05	1.14385e-06
2	1	0	1	0	18.9587	-0.13228	-0.131832	0.0084146	2	-5.39262e-05	1.10931e-06
2	1	0	1	0	18.9787	-0.130281	-0.129854	0.00823576	2	-5.37546e-05	1.06945e-06
2	1	0	1	0	18.9987	-0.128281	-0.12784	0.00809577	2	-5.35859e-05	1.03496e-06
2	1	0	1	0	19.0186	-0.126287	-0.125851	0.007974	2	-5.3421e-05	1.00353e-06
2	1	0	0	0	19.0385	-0.124283	-0.123847	0.00783749	2	-5.32586e-05	9.70647e-07
2	1	0	0	0	19.0585	-0.122284	-0.121853	0.00765877	2	-5.30983e-05	9.33244e-07
2	1	0	0	0	19.0785	-0.120285	-0.119853	0.00754401	2	-5.29407e-05	9.0417e-07
2	1	0	0	0	19.0985	-0.118286	-0.117853	0.00742379	2	-5.27858e-05	8.74913e-07
2	1	0	0	0	19.1185	-0.116286	-0.115854	0.0073161	2	-5.26333e-05	8.47602e-07
2	1	0	0	0	19.1385	-0.114287	-0.113867	0.00720924	2	-5.24833e-05	8.20896e-07
2	1	0	0	0	19.1585	-0.112288	-0.111855	0.00707587	2	-5.23356e-05	7.91469e-07
2	1	0	0	0	19.1785	-0.110289	-0.10986	0.00695787	2	-5.21902e-05	7.64388e-07
2	1	0	0	0	19.1985	-0.10829	-0.107858	0.00686079	2	-5.20469e-05	7.39991e-07
2	1	0	0	0	19.2185	-0.10629	-0.105857	0.00674422	2	-5.19058e-05	7.13923e-07
2	1	0	0	0	19.2385	-0.104291	-0.10386	0.00664313	2	-5.17666e-05	6.89958e-07
2	1	0	0	0	19.2585	-0.102292	-0.101855	0.00658435	2	-5.16293e-05	6.70648e-07
2	1	0	0	0	19.2785	-0.100293	-0.099849	0.0064561	2	-5.14937e-05	6.44636e-07
2	1	0	0	0	19.2985	-0.0982937	-0.0978519	0.00636005	2	-5.136e-05	6.22343e-07
2	1	0	0	0	19.3185	-0.0962945	-0.0958577	0.00629643	2	-5.12279e-05	6.03562e-07
2	1	0	0	0	19.3385	-0.0942954	-0.0938658	0.00621845	2	-5.10975e-05	5.837e-07
2	1	0	0	0	19.3585	-0.0922962	-0.0918625	0.00616424	2	-5.09686e-05	5.66262e-07
2	1	0	0	0	19.3785	-0.090297	-0.0898562	0.00607402	2	-5.08411e-05	5.45788e-07
2	1	0	0	0	19.3985	-0.0882978	-0.0878445	0.00600351	2	-5.07149e-05	5.27375e-07
2	1	0	0	0	19.4185	-0.0862986	-0.0858452	0.00595571	2	-5.05902e-05	5.11269e-07
2	1	0	0	0	19.4385	-0.0842995	-0.0838484	0.00586962	2	-5.04666e-05	4.92158e-07
2	1	0	0	0	19.4585	-0.0823003	-0.081864	0.00580006	2	-5.03446e-05	4.74817e-07
2	1	0	0	0	19.4785	-0.0803011	-0.0798715	0.00578779	2	-5.02235e-05	4.62279e-07
2	1	0	0	0	19.4985	-0.0783019	-0.0778612	0.00572449	2	-5.01035e-05	4.45716e-07
2	1	0	1	0	19.5183	-0.0763027	-0.0758645	0.00565801	2	-4.99855e-05	4.29242e-07
2	1	0	1	0	19.5383	-0.0743036	-0.0738758	0.00560794	2	-4.98677e-05	4.14291e-07
2	1	0	1	0	19.5583	-0.0723044	-0.071867	0.00556492	2	-4.97508e-05	3.99934e-07
2	1	0	1	0	19.5783	-0.0703052	-0.0698601	0.00554323	2	-4.96346e-05	3.87251e-07
2	1	0	1	0	19.5983	-0.068306	-0.0678846	0.00545018	2	-4.95195e-05	3.69983e-07
2	1	0	1	0	19.6183	-0.0663069	-0.0658821	0.00541437	2	-4.94053e-05	3.5671e-07
2	1	0	1	0	19.6383	-0.0643077	-0.0638695	0.00537567	2	-4.92917e-05	3.43341e-07
2	1	0	1	0	19.6583	-0.0623085	-0.0618528	0.00536854	2	-4.9179e-05	3.32059e-07
2	1	0	1	0	19.6783	-0.0603093	-0.059866	0.00533737	2	-4.9067e-05	3.19527e-07
2	1	0	1	0	19.6983	-0.0583101	-0.0578632	0.00526972	2	-4.89557e-05	3.04922e-07
2	1	0	1	0	19.7183	-0.056311	-0.055873	0.00524576	2	-4.88451e-05	2.93096e-07
2	1	0	1	0	19.7383	-0.0543118	-0.0538731	0.00519698	2	-4.87352e-05	2.79977e-07
2	1	0	1	0	19.7583	-0.0523126	-0.0518766	0.00515141	2	-4.86258e-05	2.67237e-07
2	1	0	1	0	19.7783	-0.0503134	-0.049866	0.00512778	2	-4.8517e-05	2.55702e-07
2	1	0	1	0	19.7983	-0.0483142	-0.0478663	0.00514388	2	-4.84087e-05	2.46219e-07
2	1	0	1	0	19.8183	-0.0463151	-0.0458749	0.00512824	2	-4.8301e-05	2.35258e-07
2	1	0	1	0	19.8383	-0.0443159	-0.0438782	0.005051	2	-4.81937e-05	2.21628e-07
2	1	0	1	0	19.8583	-0.0423167	-0.0418768	0.00506337	2	-4.80871e-05	2.12038e-07
2	1	0	1	0	19.8783	-0.0403175	-0.0398701	0.00506505	2	-4.79806e-05	2.01944e-07
2	1	0	1	0	19.8983	-0.0383183	-0.0378801	0.00500326	2	-4.78748e-05	1.89524e-07
2	1	0	1	0	19.9183	-0.0363192	-0.035873	0.00502302	2	-4.77692e-05	1.80191e-07
2	1	0	1	0	19.9383	-0.03432	-0.0338782	0.00499455	2	-4.7664e-05	1.69206e-07
2	1	0	1	0	19.9583	-0.0323208	-0.0318859	0.00495942	2	-4.75593e-05	1.58136e-07
2	1	0	1	0	19.9783	-0.0303216	-0.0298784	0.00490869	2	-4.7455e-05	1.46664e-07
2	1	0	1	0	19.9957	-0.0285645	-0.0281451	0.00497622	2	-4.73643e-05	1.40056e-07