File: TAP_Report/Data/MB_PB/100 uM MB 10mM PB  second ito_08_CV_C01_2.mpt
EC-Lab ASCII FILE
Nb header lines : 53

Cyclic Voltammetry

Run on channel : 1 (SN 0696)
User :
Electrode connection : standard
Ewe ctrl range : min = -10.00 V, max = 10.00 V
Ewe,I filtering : 50 kHz
Channel : Grounded
Acquisition started on : 05/17/2017 12:39:23
Saved on :
	File : 100 uM MB 10mM PB  second ito_08_CV_C01.mpr
	Directory : \\userfs\st659\w2k\EC-Lab\Data\ITO Characterisation 17-5-17\
	Host : 144.32.136.43
Device : SP-300 (SN 0182)
Address : USB
EC-Lab for windows v10.44 (software)
Internet server v10.44 (firmware)
Command interpretor v10.44 (firmware)
Electrode material :
Initial state :
Electrolyte :
Comments :
Cable : standard
Electrode surface area : 0.001 cm²
Characteristic mass : 0.001 g
Equivalent Weight : 0.000 g/eq.
Density : 0.000 g/cm3
Ei (V)              0.000
vs.                 Eoc
dE/dt               5000.000
dE/dt unit          mV/s
E1 (V)              0.100
vs.                 Ref
Step percent        50
N                   10
E range min (V)     -10.000
E range max (V)     10.000
I Range             Auto
I Range min         Unset
I Range max         Unset
I Range init        Unset
Bandwidth           8
E2 (V)              -0.600
vs.                 Ref
nc cycles           2
Reverse Scan        1
Ef (V)              0.000
vs.                 Eoc

mode	ox/red	error	control changes	counter inc.	time/s	control/V	Ewe/V	<I>/mA	cycle number	(Q-Qo)/C	P/W
2	1	0	0	1	426.774	-0.599827	-0.600176	-0.0345974	2	-3.4612e-06	2.07645e-05
2	1	0	1	1	426.775	-0.594329	-0.594611	-0.0307429	2	-3.49533e-06	1.82801e-05
2	1	0	1	1	426.777	-0.584333	-0.584623	-0.0251533	2	-3.55061e-06	1.47052e-05
2	1	0	1	1	426.779	-0.574337	-0.574613	-0.0206925	2	-3.59597e-06	1.18902e-05
2	1	0	1	1	426.781	-0.564341	-0.564619	-0.0170732	2	-3.63335e-06	9.63985e-06
2	1	0	1	1	426.783	-0.554344	-0.554609	-0.0140554	2	-3.66416e-06	7.79526e-06
2	1	0	1	1	426.785	-0.544348	-0.544596	-0.0114891	2	-3.68944e-06	6.25692e-06
2	1	0	1	1	426.787	-0.534352	-0.534589	-0.00926509	2	-3.70996e-06	4.95301e-06
2	1	0	1	1	426.789	-0.524356	-0.524595	-0.00739438	2	-3.72643e-06	3.87906e-06
2	1	0	1	1	426.791	-0.51436	-0.514597	-0.0057486	2	-3.73939e-06	2.95821e-06
2	1	0	1	1	426.793	-0.504363	-0.504614	-0.00431594	2	-3.74931e-06	2.17788e-06
2	1	0	1	1	426.795	-0.494367	-0.494609	-0.00305558	2	-3.75655e-06	1.51132e-06
2	1	0	1	1	426.797	-0.484371	-0.484624	-0.00196101	2	-3.76145e-06	9.50351e-07
2	1	0	1	1	426.799	-0.474375	-0.474604	-0.000983245	2	-3.7643e-06	4.66652e-07
2	1	0	1	1	426.801	-0.464379	-0.46462	-0.000116959	2	-3.76531e-06	5.43415e-08
2	1	0	1	1	426.803	-0.454383	-0.454593	0.000652112	2	-3.76469e-06	2.96446e-07
2	1	0	1	1	426.805	-0.444386	-0.444613	0.0013363	2	-3.76263e-06	5.94137e-07
2	1	0	1	1	426.807	-0.43439	-0.434612	0.00196059	2	-3.75927e-06	8.52096e-07
2	1	0	1	1	426.809	-0.424394	-0.424643	0.00250862	2	-3.75475e-06	1.06527e-06
2	1	0	1	1	426.811	-0.414398	-0.414642	0.00303457	2	-3.74915e-06	1.25826e-06
2	1	0	1	1	426.813	-0.404402	-0.404645	0.00352045	2	-3.74255e-06	1.42453e-06
2	1	0	1	1	426.815	-0.394405	-0.394655	0.00395166	2	-3.73503e-06	1.55954e-06
2	1	0	1	1	426.817	-0.384409	-0.384661	0.00436925	2	-3.72667e-06	1.68068e-06
2	1	0	1	1	426.819	-0.374413	-0.374639	0.00474697	2	-3.71751e-06	1.7784e-06
2	1	0	1	1	426.821	-0.364417	-0.364637	0.00511688	2	-3.70761e-06	1.8658e-06
2	1	0	1	1	426.823	-0.354421	-0.354671	0.00547332	2	-3.69698e-06	1.94123e-06
2	1	0	1	1	426.825	-0.344424	-0.344679	0.00585076	2	-3.68562e-06	2.01663e-06
2	1	0	1	1	426.827	-0.334428	-0.334646	0.00618453	2	-3.67355e-06	2.06963e-06
2	1	0	1	1	426.829	-0.324432	-0.324637	0.0065341	2	-3.6608e-06	2.12121e-06
2	1	0	1	1	426.831	-0.314436	-0.31466	0.00686702	2	-3.64736e-06	2.16078e-06
2	1	0	1	1	426.833	-0.30444	-0.304679	0.00724041	2	-3.63322e-06	2.206e-06
2	1	0	1	1	426.835	-0.294443	-0.294644	0.00760189	2	-3.61834e-06	2.23985e-06
2	1	0	1	1	426.837	-0.284447	-0.284633	0.00797359	2	-3.60273e-06	2.26954e-06
2	1	0	1	1	426.839	-0.274451	-0.27465	0.00836603	2	-3.58635e-06	2.29773e-06
2	1	0	1	1	426.841	-0.264455	-0.264661	0.00878601	2	-3.56916e-06	2.32531e-06
2	1	0	1	1	426.843	-0.254459	-0.254667	0.0092638	2	-3.55106e-06	2.35918e-06
2	1	0	1	1	426.845	-0.244463	-0.244695	0.00977447	2	-3.53198e-06	2.39176e-06
2	1	0	1	1	426.847	-0.234466	-0.23469	0.0103199	2	-3.51183e-06	2.42198e-06
2	1	0	1	1	426.849	-0.22447	-0.224715	0.010976	2	-3.49047e-06	2.46647e-06
2	1	0	1	1	426.851	-0.214474	-0.214703	0.0116493	2	-3.46778e-06	2.50115e-06
2	1	0	1	1	426.853	-0.204478	-0.204694	0.0124324	2	-3.44361e-06	2.54483e-06
2	1	0	1	1	426.855	-0.194482	-0.1947	0.0133027	2	-3.4178e-06	2.59004e-06
2	1	0	1	1	426.857	-0.184485	-0.184697	0.0141615	2	-3.39026e-06	2.61559e-06
2	1	0	1	1	426.859	-0.174489	-0.174715	0.0150988	2	-3.3609e-06	2.63798e-06
2	1	0	1	1	426.861	-0.164493	-0.164705	0.0160318	2	-3.32968e-06	2.64052e-06
2	1	0	1	1	426.863	-0.154497	-0.154698	0.0169871	2	-3.29658e-06	2.62786e-06
2	1	0	1	1	426.865	-0.144501	-0.144702	0.0179615	2	-3.26154e-06	2.59906e-06
2	1	0	1	1	426.867	-0.134505	-0.134695	0.0188331	2	-3.22465e-06	2.53671e-06
2	1	0	1	1	426.869	-0.124508	-0.124687	0.019635	2	-3.18612e-06	2.44824e-06
2	1	0	1	1	426.871	-0.114512	-0.114683	0.0204361	2	-3.14596e-06	2.34368e-06
2	1	0	1	1	426.873	-0.104516	-0.104693	0.0210065	2	-3.10446e-06	2.19924e-06
2	1	0	1	1	426.875	-0.0945197	-0.0947015	0.0215035	2	-3.0619e-06	2.03642e-06
2	1	0	1	1	426.877	-0.0845236	-0.0847166	0.0218052	2	-3.01856e-06	1.84726e-06
2	1	0	1	1	426.879	-0.0745274	-0.074728	0.0220442	2	-2.97468e-06	1.64732e-06
2	1	0	1	1	426.881	-0.0645312	-0.06472	0.0222126	2	-2.9304e-06	1.4376e-06
2	1	0	1	1	426.883	-0.054535	-0.0547438	0.0223265	2	-2.88584e-06	1.22224e-06
2	1	0	1	1	426.885	-0.0445388	-0.0447291	0.0222983	2	-2.84122e-06	9.97385e-07
2	1	0	1	1	426.887	-0.0345426	-0.0347273	0.0221937	2	-2.79673e-06	7.70726e-07
2	1	0	1	1	426.889	-0.0245464	-0.0247196	0.0220081	2	-2.75253e-06	5.44032e-07
2	1	0	1	1	426.891	-0.0145502	-0.0147472	0.021741	2	-2.70881e-06	3.20619e-07
2	1	0	1	1	426.893	-0.00453553	-0.00472793	0.0214133	2	-2.66568e-06	1.01241e-07
2	1	0	1	1	426.895	0.00577535	0.00561756	0.0212589	2	-2.62301e-06	1.19423e-07
2	1	0	1	1	426.897	0.0157715	0.0156332	0.0208915	2	-2.58091e-06	3.26602e-07
2	1	0	1	1	426.899	0.0257677	0.0256078	0.0205082	2	-2.53955e-06	5.2517e-07
2	1	0	1	1	426.901	0.0357639	0.0356116	0.020135	2	-2.49893e-06	7.17037e-07
2	1	0	1	1	426.903	0.0457601	0.0456103	0.0198294	2	-2.45899e-06	9.04424e-07
2	1	0	1	1	426.905	0.0557563	0.05562	0.0194958	2	-2.41971e-06	1.08436e-06
2	1	0	1	1	426.907	0.0657525	0.0656234	0.0191991	2	-2.38103e-06	1.25991e-06
2	1	0	1	1	426.909	0.0757486	0.0756107	0.0189864	2	-2.34288e-06	1.43558e-06
2	1	0	1	1	426.911	0.0857448	0.0855967	0.0186969	2	-2.30522e-06	1.60039e-06
2	1	0	1	1	426.913	0.0947414	0.0945763	0.018397	2	-2.27185e-06	1.73992e-06
2	1	0	1	1	426.914	0.0992397	0.0990591	0.0182337	2	-2.25533e-06	1.80622e-06
2	1	0	0	1	426.914	0.100239	0.100089	0.0182036	2	-2.25169e-06	1.82199e-06
2	0	0	1	1	426.914	0.0992397	0.0992499	0.0173462	2	-2.24822e-06	1.72161e-06
2	0	0	0	1	426.915	0.0937418	0.093697	0.0135717	2	-2.23297e-06	1.27163e-06
2	0	0	0	1	426.917	0.0837456	0.0836841	0.00873511	2	-2.21124e-06	7.3099e-07
2	0	0	0	1	426.919	0.0737494	0.073686	0.00554545	2	-2.19732e-06	4.08622e-07
2	0	0	0	1	426.921	0.0637532	0.0636985	0.00331634	2	-2.1887e-06	2.11246e-07
2	0	0	0	1	426.923	0.053757	0.0536932	0.00162108	2	-2.18395e-06	8.7041e-08
2	0	0	0	1	426.925	0.0437608	0.0436737	0.000284316	2	-2.18219e-06	1.24171e-08
2	0	0	0	1	426.927	0.0337647	0.0336833	-0.000786167	2	-2.1828e-06	2.64807e-08
2	0	0	0	1	426.929	0.0237685	0.023681	-0.00168193	2	-2.18537e-06	3.98297e-08
2	0	0	0	1	426.931	0.0137723	0.0137005	-0.00245072	2	-2.18958e-06	3.35761e-08
2	0	0	0	1	426.933	0.0037576	0.00365644	-0.00314394	2	-2.19525e-06	1.14956e-08
2	0	0	0	1	426.935	-0.00655328	-0.00667316	-0.00384768	2	-2.20233e-06	2.56762e-08
2	0	0	0	1	426.937	-0.0165495	-0.016688	-0.00434511	2	-2.21057e-06	7.25112e-08
2	0	0	0	1	426.939	-0.0265457	-0.0266702	-0.00485115	2	-2.21982e-06	1.29381e-07
2	0	0	0	1	426.941	-0.0365418	-0.0366665	-0.0053101	2	-2.23002e-06	1.94703e-07
2	0	0	0	1	426.943	-0.046538	-0.0466742	-0.00576356	2	-2.24114e-06	2.69009e-07
2	0	0	0	1	426.945	-0.0565342	-0.0566763	-0.00619306	2	-2.25314e-06	3.50999e-07
2	0	0	0	1	426.947	-0.0665304	-0.0666616	-0.00662574	2	-2.26601e-06	4.41682e-07
2	0	0	0	1	426.949	-0.0765266	-0.0766563	-0.00706913	2	-2.27974e-06	5.41894e-07
2	0	0	0	1	426.951	-0.0865228	-0.0866548	-0.00746316	2	-2.29432e-06	6.46719e-07
2	0	0	0	1	426.953	-0.096519	-0.0966323	-0.00788226	2	-2.3097e-06	7.61681e-07
2	0	0	0	1	426.955	-0.106515	-0.10663	-0.00832915	2	-2.32596e-06	8.88134e-07
2	0	0	0	1	426.957	-0.116511	-0.11661	-0.00880806	2	-2.34315e-06	1.0271e-06
2	0	0	0	1	426.959	-0.126508	-0.126613	-0.0092483	2	-2.36125e-06	1.17096e-06
2	0	0	0	1	426.961	-0.136504	-0.136636	-0.00974139	2	-2.38029e-06	1.33102e-06
2	0	0	0	1	426.963	-0.1465	-0.14663	-0.0102982	2	-2.40038e-06	1.51002e-06
2	0	0	0	1	426.965	-0.156496	-0.15661	-0.0108313	2	-2.42156e-06	1.69628e-06
2	0	0	0	1	426.967	-0.166492	-0.166632	-0.0114045	2	-2.44384e-06	1.90037e-06
2	0	0	0	1	426.969	-0.176488	-0.176624	-0.0120694	2	-2.46738e-06	2.13176e-06
2	0	0	0	1	426.971	-0.186485	-0.186634	-0.0127908	2	-2.49231e-06	2.38719e-06
2	0	0	0	1	426.973	-0.196481	-0.196604	-0.0135506	2	-2.51873e-06	2.6641e-06
2	0	0	0	1	426.975	-0.206477	-0.206611	-0.0144161	2	-2.54679e-06	2.97852e-06
2	0	0	0	1	426.977	-0.216473	-0.216629	-0.0152591	2	-2.57655e-06	3.30557e-06
2	0	0	0	1	426.979	-0.226469	-0.226631	-0.0162127	2	-2.60811e-06	3.6743e-06
2	0	0	0	1	426.981	-0.236466	-0.236612	-0.017155	2	-2.64157e-06	4.05908e-06
2	0	0	0	1	426.983	-0.246462	-0.246607	-0.0182132	2	-2.67705e-06	4.49151e-06
2	0	0	0	1	426.985	-0.256458	-0.256602	-0.0191535	2	-2.71452e-06	4.91481e-06
2	0	0	0	1	426.987	-0.266454	-0.266594	-0.0200983	2	-2.75386e-06	5.3581e-06
2	0	0	0	1	426.989	-0.27645	-0.276575	-0.0210718	2	-2.79513e-06	5.82793e-06
2	0	0	0	1	426.991	-0.286447	-0.286561	-0.0220174	2	-2.83832e-06	6.30933e-06
2	0	0	0	1	426.993	-0.296443	-0.296577	-0.0228332	2	-2.88325e-06	6.77179e-06
2	0	0	0	1	426.995	-0.306439	-0.306572	-0.0236656	2	-2.92983e-06	7.25519e-06
2	0	0	0	1	426.997	-0.316435	-0.316575	-0.0244888	2	-2.97807e-06	7.75253e-06
2	0	0	0	1	426.999	-0.326431	-0.326574	-0.025136	2	-3.02778e-06	8.20877e-06
2	0	0	0	1	427.001	-0.336428	-0.336585	-0.0258011	2	-3.07877e-06	8.68425e-06
2	0	0	0	1	427.003	-0.346424	-0.346605	-0.0263389	2	-3.13097e-06	9.12919e-06
2	0	0	0	1	427.005	-0.35642	-0.356589	-0.0267725	2	-3.18413e-06	9.54678e-06
2	0	0	0	1	427.007	-0.366416	-0.366573	-0.0272355	2	-3.23817e-06	9.98379e-06
2	0	0	0	1	427.009	-0.376412	-0.376564	-0.0275648	2	-3.29302e-06	1.03799e-05
2	0	0	0	1	427.011	-0.386408	-0.386577	-0.027829	2	-3.34845e-06	1.0758e-05
2	0	0	0	1	427.013	-0.396405	-0.396604	-0.0279208	2	-3.40421e-06	1.10735e-05
2	0	0	0	1	427.015	-0.406401	-0.406587	-0.0280385	2	-3.46017e-06	1.14001e-05
2	0	0	0	1	427.017	-0.416397	-0.416602	-0.0281243	2	-3.51635e-06	1.17166e-05
2	0	0	0	1	427.019	-0.426393	-0.426571	-0.0280093	2	-3.57247e-06	1.1948e-05
2	0	0	0	1	427.021	-0.436389	-0.436565	-0.0280192	2	-3.62849e-06	1.22322e-05
2	0	0	0	1	427.023	-0.446386	-0.446543	-0.0279507	2	-3.68444e-06	1.24812e-05
2	0	0	0	1	427.025	-0.456382	-0.456537	-0.0278576	2	-3.74025e-06	1.2718e-05
2	0	0	0	1	427.027	-0.466378	-0.466547	-0.0278407	2	-3.79594e-06	1.2989e-05
2	0	0	0	1	427.029	-0.476374	-0.476566	-0.0277816	2	-3.85155e-06	1.32398e-05
2	0	0	0	1	427.031	-0.48637	-0.486572	-0.0276758	2	-3.907e-06	1.34663e-05
2	0	0	0	1	427.033	-0.496367	-0.496536	-0.0276566	2	-3.96232e-06	1.37325e-05
2	0	0	0	1	427.035	-0.506363	-0.506555	-0.0276915	2	-4.01767e-06	1.40273e-05
2	0	0	0	1	427.037	-0.516359	-0.516527	-0.0276619	2	-4.07303e-06	1.42881e-05
2	0	0	0	1	427.039	-0.526355	-0.526542	-0.0277963	2	-4.12852e-06	1.4636e-05
2	0	0	0	1	427.041	-0.536351	-0.53652	-0.027702	2	-4.18403e-06	1.48627e-05
2	0	0	0	1	427.043	-0.546347	-0.546519	-0.0277233	2	-4.23944e-06	1.51513e-05
2	0	0	0	1	427.045	-0.556344	-0.556528	-0.0278442	2	-4.29502e-06	1.54961e-05
2	0	0	0	1	427.047	-0.56634	-0.566531	-0.0279681	2	-4.35086e-06	1.58448e-05
2	0	0	0	1	427.049	-0.576336	-0.576513	-0.0280034	2	-4.40683e-06	1.61443e-05
2	0	0	0	1	427.051	-0.586332	-0.586523	-0.0282156	2	-4.46307e-06	1.65491e-05
2	0	0	0	1	427.053	-0.595329	-0.595491	-0.0283453	2	-4.51398e-06	1.68794e-05
2	0	0	0	1	427.054	-0.599827	-0.600024	-0.0285838	2	-4.53955e-06	1.7151e-05
2	0	0	1	1	427.054	-0.600827	-0.600981	-0.0285709	2	-4.54526e-06	1.71706e-05