File: TAP_Report/Data/MB_PB/100 uM MB 10mM PB  second ito_07_CV_C01_2.mpt
EC-Lab ASCII FILE
Nb header lines : 53

Cyclic Voltammetry

Run on channel : 1 (SN 0696)
User :
Electrode connection : standard
Ewe ctrl range : min = -10.00 V, max = 10.00 V
Ewe,I filtering : 50 kHz
Channel : Grounded
Acquisition started on : 05/17/2017 12:39:23
Saved on :
	File : 100 uM MB 10mM PB  second ito_07_CV_C01.mpr
	Directory : \\userfs\st659\w2k\EC-Lab\Data\ITO Characterisation 17-5-17\
	Host : 144.32.136.43
Device : SP-300 (SN 0182)
Address : USB
EC-Lab for windows v10.44 (software)
Internet server v10.44 (firmware)
Command interpretor v10.44 (firmware)
Electrode material :
Initial state :
Electrolyte :
Comments :
Cable : standard
Electrode surface area : 0.001 cm²
Characteristic mass : 0.001 g
Equivalent Weight : 0.000 g/eq.
Density : 0.000 g/cm3
Ei (V)              0.000
vs.                 Eoc
dE/dt               2500.000
dE/dt unit          mV/s
E1 (V)              0.100
vs.                 Ref
Step percent        50
N                   10
E range min (V)     -10.000
E range max (V)     10.000
I Range             Auto
I Range min         Unset
I Range max         Unset
I Range init        Unset
Bandwidth           8
E2 (V)              -0.600
vs.                 Ref
nc cycles           2
Reverse Scan        1
Ef (V)              0.000
vs.                 Eoc

mode	ox/red	error	control changes	counter inc.	time/s	control/V	Ewe/V	<I>/mA	cycle number	(Q-Qo)/C	P/W
2	1	0	1	1	424.93	-0.599827	-0.600104	-0.0180416	2	-3.79498e-06	1.08268e-05
2	1	0	0	1	424.931	-0.597161	-0.597426	-0.0161581	2	-3.81292e-06	9.6533e-06
2	1	0	0	1	424.933	-0.592163	-0.592416	-0.0134732	2	-3.84225e-06	7.98172e-06
2	1	0	0	1	424.935	-0.587165	-0.58741	-0.0114599	2	-3.86696e-06	6.73167e-06
2	1	0	0	1	424.937	-0.582167	-0.582406	-0.00988359	2	-3.88814e-06	5.75626e-06
2	1	0	0	1	424.939	-0.577169	-0.577418	-0.00865682	2	-3.90655e-06	4.9986e-06
2	1	0	0	1	424.941	-0.572171	-0.57242	-0.00758008	2	-3.92267e-06	4.33899e-06
2	1	0	0	1	424.943	-0.567173	-0.567429	-0.00671346	2	-3.93687e-06	3.80941e-06
2	1	0	0	1	424.945	-0.562175	-0.562402	-0.00594985	2	-3.94945e-06	3.34621e-06
2	1	0	0	1	424.947	-0.557177	-0.557421	-0.00529656	2	-3.96063e-06	2.95241e-06
2	1	0	0	1	424.949	-0.552179	-0.552401	-0.00472425	2	-3.97059e-06	2.60968e-06
2	1	0	0	1	424.951	-0.54718	-0.54741	-0.00422622	2	-3.97949e-06	2.31348e-06
2	1	0	0	1	424.953	-0.542182	-0.54241	-0.00377132	2	-3.98744e-06	2.0456e-06
2	1	0	0	1	424.955	-0.537184	-0.537399	-0.00336892	2	-3.99454e-06	1.81046e-06
2	1	0	0	1	424.957	-0.532186	-0.532413	-0.00301458	2	-4.00089e-06	1.605e-06
2	1	0	0	1	424.959	-0.527188	-0.52743	-0.00269096	2	-4.00656e-06	1.41929e-06
2	1	0	0	1	424.961	-0.52219	-0.522425	-0.00239057	2	-4.01161e-06	1.24889e-06
2	1	0	0	1	424.963	-0.517192	-0.517429	-0.00211359	2	-4.01608e-06	1.09363e-06
2	1	0	0	1	424.965	-0.512194	-0.512434	-0.00186809	2	-4.02004e-06	9.57275e-07
2	1	0	0	1	424.967	-0.507196	-0.507438	-0.00162751	2	-4.02351e-06	8.25863e-07
2	1	0	0	1	424.969	-0.502198	-0.502451	-0.00141444	2	-4.02654e-06	7.10686e-07
2	1	0	0	1	424.971	-0.4972	-0.49741	-0.00119984	2	-4.02913e-06	5.96812e-07
2	1	0	0	1	424.973	-0.492201	-0.492419	-0.00101812	2	-4.03133e-06	5.01342e-07
2	1	0	0	1	424.975	-0.487203	-0.487434	-0.00083719	2	-4.03316e-06	4.08075e-07
2	1	0	0	1	424.977	-0.482205	-0.482438	-0.00067287	2	-4.03465e-06	3.24618e-07
2	1	0	0	1	424.979	-0.477207	-0.477433	-0.000505923	2	-4.03582e-06	2.41545e-07
2	1	0	0	1	424.981	-0.472209	-0.472458	-0.000364424	2	-4.03667e-06	1.72175e-07
2	1	0	0	1	424.983	-0.467211	-0.467442	-0.000213157	2	-4.03724e-06	9.96384e-08
2	1	0	0	1	424.985	-0.462213	-0.462451	-6.97504e-05	2	-4.0375e-06	3.22561e-08
2	1	0	0	1	424.987	-0.457215	-0.457423	6.14935e-05	2	-4.0375e-06	2.81286e-08
2	1	0	0	1	424.989	-0.452217	-0.452436	0.000190449	2	-4.03723e-06	8.61659e-08
2	1	0	0	1	424.991	-0.447219	-0.447443	0.000307772	2	-4.03672e-06	1.3771e-07
2	1	0	0	1	424.993	-0.442221	-0.442462	0.000431155	2	-4.03597e-06	1.90769e-07
2	1	0	0	1	424.995	-0.437111	-0.437334	0.000588757	2	-4.03494e-06	2.57483e-07
2	1	0	0	1	424.997	-0.432058	-0.432298	0.0007132	2	-4.03362e-06	3.08315e-07
2	1	0	0	1	424.999	-0.42706	-0.427293	0.000807342	2	-4.03209e-06	3.44972e-07
2	1	0	0	1	425.001	-0.422062	-0.422315	0.000901675	2	-4.03037e-06	3.80791e-07
2	1	0	0	1	425.003	-0.417063	-0.417311	0.00099802	2	-4.02846e-06	4.16484e-07
2	1	0	0	1	425.005	-0.412065	-0.412298	0.00110151	2	-4.02635e-06	4.54149e-07
2	1	0	0	1	425.007	-0.407067	-0.407318	0.00118921	2	-4.02405e-06	4.84386e-07
2	1	0	0	1	425.009	-0.402069	-0.40231	0.00128629	2	-4.02157e-06	5.17489e-07
2	1	0	0	1	425.011	-0.397071	-0.397318	0.0013919	2	-4.01888e-06	5.53027e-07
2	1	0	0	1	425.013	-0.392073	-0.392328	0.00149895	2	-4.01598e-06	5.88079e-07
2	1	0	0	1	425.015	-0.387075	-0.387332	0.0015923	2	-4.01287e-06	6.16751e-07
2	1	0	0	1	425.017	-0.382077	-0.382308	0.00169549	2	-4.00958e-06	6.482e-07
2	1	0	0	1	425.019	-0.377079	-0.377301	0.00180212	2	-4.00607e-06	6.79941e-07
2	1	0	0	1	425.021	-0.372081	-0.372305	0.00188266	2	-4.00237e-06	7.00922e-07
2	1	0	0	1	425.023	-0.367083	-0.367308	0.00199669	2	-3.99849e-06	7.33402e-07
2	1	0	0	1	425.025	-0.362084	-0.36232	0.00209304	2	-3.99438e-06	7.5835e-07
2	1	0	0	1	425.027	-0.357086	-0.357337	0.00219381	2	-3.99009e-06	7.83932e-07
2	1	0	0	1	425.029	-0.352088	-0.352337	0.00229311	2	-3.98559e-06	8.07946e-07
2	1	0	0	1	425.031	-0.34709	-0.34731	0.00239136	2	-3.9809e-06	8.30544e-07
2	1	0	0	1	425.033	-0.342092	-0.34233	0.00248448	2	-3.97601e-06	8.50513e-07
2	1	0	0	1	425.035	-0.337094	-0.3373	0.00260219	2	-3.97091e-06	8.77717e-07
2	1	0	0	1	425.037	-0.332096	-0.332313	0.00270131	2	-3.9656e-06	8.9768e-07
2	1	0	0	1	425.039	-0.327098	-0.327284	0.00280516	2	-3.96009e-06	9.18082e-07
2	1	0	0	1	425.041	-0.3221	-0.322297	0.00292515	2	-3.95435e-06	9.42766e-07
2	1	0	0	1	425.043	-0.317102	-0.317324	0.00303465	2	-3.94837e-06	9.62968e-07
2	1	0	0	1	425.045	-0.312103	-0.312315	0.00316486	2	-3.94216e-06	9.88434e-07
2	1	0	0	1	425.047	-0.307105	-0.30732	0.00328227	2	-3.93571e-06	1.00871e-06
2	1	0	0	1	425.049	-0.302107	-0.302322	0.00339234	2	-3.92902e-06	1.02558e-06
2	1	0	0	1	425.051	-0.297109	-0.29731	0.0035227	2	-3.92209e-06	1.04733e-06
2	1	0	0	1	425.053	-0.292111	-0.292293	0.00367636	2	-3.91488e-06	1.07457e-06
2	1	0	0	1	425.055	-0.287113	-0.287297	0.00381561	2	-3.90737e-06	1.09621e-06
2	1	0	0	1	425.057	-0.282115	-0.282288	0.00399544	2	-3.89954e-06	1.12787e-06
2	1	0	0	1	425.059	-0.277117	-0.2773	0.00415879	2	-3.89138e-06	1.15323e-06
2	1	0	0	1	425.061	-0.272119	-0.272313	0.00428198	2	-3.88293e-06	1.16604e-06
2	1	0	0	1	425.063	-0.267121	-0.267325	0.00447658	2	-3.87415e-06	1.1967e-06
2	1	0	0	1	425.065	-0.262123	-0.262304	0.00468391	2	-3.86497e-06	1.22861e-06
2	1	0	0	1	425.067	-0.257124	-0.257317	0.00489972	2	-3.85536e-06	1.26078e-06
2	1	0	0	1	425.069	-0.252126	-0.252337	0.00509921	2	-3.84534e-06	1.28672e-06
2	1	0	0	1	425.071	-0.247128	-0.247343	0.00534678	2	-3.83487e-06	1.32249e-06
2	1	0	0	1	425.073	-0.24213	-0.242322	0.00558511	2	-3.82391e-06	1.3534e-06
2	1	0	0	1	425.075	-0.237132	-0.237338	0.00584169	2	-3.81246e-06	1.38645e-06
2	1	0	0	1	425.077	-0.232134	-0.232361	0.00610153	2	-3.80049e-06	1.41776e-06
2	1	0	0	1	425.079	-0.227136	-0.227348	0.00640658	2	-3.78795e-06	1.45652e-06
2	1	0	0	1	425.081	-0.222138	-0.222342	0.00673018	2	-3.77478e-06	1.4964e-06
2	1	0	0	1	425.083	-0.21714	-0.217351	0.00703878	2	-3.76098e-06	1.52988e-06
2	1	0	0	1	425.085	-0.212142	-0.212349	0.00737924	2	-3.74653e-06	1.56698e-06
2	1	0	0	1	425.087	-0.207143	-0.207349	0.00771209	2	-3.7314e-06	1.5991e-06
2	1	0	0	1	425.089	-0.202145	-0.202341	0.00809714	2	-3.71556e-06	1.63838e-06
2	1	0	0	1	425.091	-0.197147	-0.197337	0.00847506	2	-3.69895e-06	1.67245e-06
2	1	0	0	1	425.093	-0.192149	-0.192348	0.00882574	2	-3.68161e-06	1.69761e-06
2	1	0	0	1	425.095	-0.187151	-0.187357	0.00916317	2	-3.66359e-06	1.71678e-06
2	1	0	0	1	425.097	-0.182153	-0.182357	0.00960492	2	-3.64479e-06	1.75152e-06
2	1	0	0	1	425.099	-0.177155	-0.177359	0.0099736	2	-3.62518e-06	1.76891e-06
2	1	0	0	1	425.101	-0.172157	-0.17237	0.0102894	2	-3.60488e-06	1.77358e-06
2	1	0	0	1	425.103	-0.167159	-0.167349	0.0106357	2	-3.58392e-06	1.77986e-06
2	1	0	0	1	425.105	-0.162161	-0.162343	0.0109411	2	-3.56231e-06	1.7762e-06
2	1	0	0	1	425.107	-0.157163	-0.157338	0.0112354	2	-3.54011e-06	1.76776e-06
2	1	0	0	1	425.109	-0.152164	-0.152343	0.0115049	2	-3.51734e-06	1.75269e-06
2	1	0	0	1	425.111	-0.147166	-0.14735	0.0118146	2	-3.49399e-06	1.74087e-06
2	1	0	0	1	425.113	-0.142168	-0.142369	0.0120809	2	-3.47007e-06	1.71995e-06
2	1	0	0	1	425.115	-0.13717	-0.137365	0.0122729	2	-3.4457e-06	1.68587e-06
2	1	0	0	1	425.117	-0.132172	-0.132349	0.0124713	2	-3.42093e-06	1.65057e-06
2	1	0	0	1	425.119	-0.127174	-0.127366	0.0126848	2	-3.39575e-06	1.61561e-06
2	1	0	0	1	425.121	-0.122176	-0.122335	0.0128559	2	-3.37019e-06	1.57273e-06
2	1	0	0	1	425.123	-0.117178	-0.117342	0.0129832	2	-3.34433e-06	1.52348e-06
2	1	0	0	1	425.125	-0.11218	-0.112327	0.0130679	2	-3.31827e-06	1.46789e-06
2	1	0	0	1	425.127	-0.107182	-0.107361	0.0131095	2	-3.29208e-06	1.40744e-06
2	1	0	0	1	425.129	-0.102183	-0.102365	0.0131463	2	-3.26582e-06	1.34572e-06
2	1	0	0	1	425.131	-0.0971854	-0.0973693	0.0131409	2	-3.23953e-06	1.27952e-06
2	1	0	0	1	425.133	-0.0921873	-0.0923487	0.0131805	2	-3.2132e-06	1.2172e-06
2	1	0	0	1	425.135	-0.0871892	-0.0873736	0.0131838	2	-3.18684e-06	1.15191e-06
2	1	0	0	1	425.137	-0.0821911	-0.0823779	0.013166	2	-3.16049e-06	1.08458e-06
2	1	0	0	1	425.139	-0.077193	-0.0773929	0.0130835	2	-3.13425e-06	1.01257e-06
2	1	0	0	1	425.141	-0.0721949	-0.072378	0.0130595	2	-3.10811e-06	9.45218e-07
2	1	0	0	1	425.143	-0.0671968	-0.0673895	0.0129466	2	-3.08211e-06	8.72462e-07
2	1	0	0	1	425.145	-0.0621987	-0.0623816	0.0128431	2	-3.05634e-06	8.01171e-07
2	1	0	0	1	425.147	-0.0572006	-0.0574065	0.0127185	2	-3.03078e-06	7.30122e-07
2	1	0	0	1	425.149	-0.0522025	-0.052396	0.0126721	2	-3.00541e-06	6.63968e-07
2	1	0	0	1	425.151	-0.0472045	-0.0473953	0.0125735	2	-2.98018e-06	5.95922e-07
2	1	0	0	1	425.153	-0.0422064	-0.0423895	0.0124116	2	-2.95521e-06	5.26121e-07
2	1	0	0	1	425.155	-0.0372083	-0.0373726	0.0122886	2	-2.93051e-06	4.59255e-07
2	1	0	0	1	425.157	-0.0322102	-0.0323935	0.0121133	2	-2.90613e-06	3.92391e-07
2	1	0	0	1	425.159	-0.0272121	-0.0273811	0.0119748	2	-2.88206e-06	3.27883e-07
2	1	0	0	1	425.161	-0.022214	-0.0223895	0.0118828	2	-2.85821e-06	2.6605e-07
2	1	0	0	1	425.163	-0.0172159	-0.017396	0.0117348	2	-2.83461e-06	2.04138e-07
2	1	0	0	1	425.165	-0.0122178	-0.0124234	0.0115901	2	-2.8113e-06	1.43988e-07
2	1	0	0	1	425.167	-0.0072197	-0.007393	0.0115056	2	-2.78821e-06	8.5061e-08
2	1	0	0	1	425.169	-0.00220309	-0.00239862	0.011372	2	-2.76533e-06	2.72772e-08
2	1	0	0	1	425.171	0.0029431	0.00278822	0.0112915	2	-2.74267e-06	3.14833e-08
2	1	0	0	1	425.173	0.00794119	0.00778726	0.011169	2	-2.72022e-06	8.69758e-08
2	1	0	0	1	425.175	0.0129393	0.012806	0.0110483	2	-2.69802e-06	1.41484e-07
2	1	0	0	1	425.177	0.0179374	0.0178061	0.0109474	2	-2.67604e-06	1.94931e-07
2	1	0	0	1	425.179	0.0229355	0.0227981	0.0108747	2	-2.65423e-06	2.47922e-07
2	1	0	0	1	425.181	0.0279336	0.0277838	0.0107673	2	-2.6326e-06	2.99157e-07
2	1	0	0	1	425.183	0.0329316	0.0327877	0.0106429	2	-2.6112e-06	3.48956e-07
2	1	0	0	1	425.185	0.0379297	0.0377978	0.0106165	2	-2.58995e-06	4.01281e-07
2	1	0	0	1	425.187	0.0429278	0.0427973	0.0104876	2	-2.56885e-06	4.48842e-07
2	1	0	0	1	425.189	0.0479259	0.0477986	0.0104176	2	-2.54795e-06	4.97945e-07
2	1	0	0	1	425.191	0.052924	0.0527907	0.0102879	2	-2.52725e-06	5.43103e-07
2	1	0	0	1	425.193	0.0579221	0.0578245	0.0102617	2	-2.50671e-06	5.93377e-07
2	1	0	0	1	425.195	0.0629202	0.0628057	0.010166	2	-2.4863e-06	6.38484e-07
2	1	0	0	1	425.197	0.0679183	0.0677924	0.0100887	2	-2.46606e-06	6.83936e-07
2	1	0	0	1	425.199	0.0729164	0.0727858	0.010028	2	-2.44595e-06	7.29898e-07
2	1	0	0	1	425.201	0.0779145	0.0777831	0.00998861	2	-2.42594e-06	7.76945e-07
2	1	0	0	1	425.203	0.0829126	0.0827692	0.00993633	2	-2.40602e-06	8.22422e-07
2	1	0	0	1	425.205	0.0879107	0.0877604	0.00986683	2	-2.38623e-06	8.65917e-07
2	1	0	0	1	425.207	0.0929087	0.0927582	0.00980424	2	-2.36656e-06	9.09423e-07
2	1	0	0	1	425.209	0.097407	0.0972582	0.00977335	2	-2.34894e-06	9.50539e-07
2	1	0	0	1	425.21	0.0995729	0.099433	0.00971097	2	-2.34016e-06	9.65591e-07
2	1	0	1	1	425.21	0.100239	0.100139	0.00975178	2	-2.33821e-06	9.76532e-07
2	0	0	0	1	425.211	0.0995729	0.0994941	0.00929906	2	-2.33635e-06	9.25201e-07
2	0	0	1	1	425.212	0.0969072	0.0968279	0.00747652	2	-2.32796e-06	7.23936e-07
2	0	0	1	1	425.214	0.0919091	0.0918079	0.00522995	2	-2.31552e-06	4.8015e-07
2	0	0	1	1	425.216	0.086911	0.0868068	0.00379063	2	-2.30666e-06	3.29052e-07
2	0	0	1	1	425.218	0.0819129	0.0818054	0.00283109	2	-2.30015e-06	2.31598e-07
2	0	0	1	1	425.22	0.0769149	0.0768218	0.00212122	2	-2.29528e-06	1.62956e-07
2	0	0	1	1	425.222	0.0719168	0.0718096	0.00156819	2	-2.29164e-06	1.12611e-07
2	0	0	1	1	425.224	0.0669187	0.0668392	0.00112477	2	-2.289e-06	7.51789e-08
2	0	0	1	1	425.226	0.0619206	0.0618567	0.000746975	2	-2.28717e-06	4.62054e-08
2	0	0	1	1	425.228	0.0569225	0.056845	0.000417212	2	-2.28604e-06	2.37164e-08
2	0	0	1	1	425.23	0.0519244	0.0518396	0.000120632	2	-2.28553e-06	6.25349e-09
2	0	0	1	1	425.232	0.0469263	0.0468327	-0.000137957	2	-2.28558e-06	6.46091e-09
2	0	0	1	1	425.234	0.0419282	0.0418021	-0.000386905	2	-2.28613e-06	1.61734e-08
2	0	0	1	1	425.236	0.0369301	0.0368223	-0.000598243	2	-2.28713e-06	2.20287e-08
2	0	0	1	1	425.238	0.031932	0.0318055	-0.000808839	2	-2.28856e-06	2.57255e-08
2	0	0	1	1	425.24	0.0269339	0.0268107	-0.001002	2	-2.29039e-06	2.68642e-08
2	0	0	1	1	425.242	0.0219358	0.0218261	-0.00118049	2	-2.29259e-06	2.57655e-08
2	0	0	1	1	425.244	0.0169378	0.0168323	-0.00135325	2	-2.29514e-06	2.27783e-08
2	0	0	1	1	425.246	0.0119397	0.0118346	-0.0015228	2	-2.29804e-06	1.80217e-08
2	0	0	1	1	425.248	0.00694157	0.00683128	-0.00168167	2	-2.30126e-06	1.1488e-08
2	0	0	1	1	425.25	0.00194348	0.00179452	-0.00184326	2	-2.3048e-06	3.30776e-09
2	0	0	1	1	425.252	-0.00322122	-0.00337579	-0.00204021	2	-2.30871e-06	6.88732e-09
2	0	0	1	1	425.254	-0.00821931	-0.00836699	-0.00215571	2	-2.31292e-06	1.80368e-08
2	0	0	1	1	425.256	-0.0132174	-0.0133743	-0.00229371	2	-2.31738e-06	3.06768e-08
2	0	0	1	1	425.258	-0.0182155	-0.0183564	-0.0024201	2	-2.32211e-06	4.44244e-08
2	0	0	1	1	425.26	-0.0232136	-0.0233448	-0.00254883	2	-2.32709e-06	5.95019e-08
2	0	0	1	1	425.262	-0.0282117	-0.0283422	-0.00266903	2	-2.33232e-06	7.56461e-08
2	0	0	1	1	425.264	-0.0332098	-0.0333656	-0.0028104	2	-2.33781e-06	9.37708e-08
2	0	0	1	1	425.266	-0.0382079	-0.0383589	-0.00292902	2	-2.34357e-06	1.12354e-07
2	0	0	1	1	425.268	-0.043206	-0.0433723	-0.00306539	2	-2.34957e-06	1.32953e-07
2	0	0	1	1	425.27	-0.0482041	-0.048364	-0.00318746	2	-2.35584e-06	1.54158e-07
2	0	0	1	1	425.272	-0.0532022	-0.0533702	-0.00332947	2	-2.36237e-06	1.77694e-07
2	0	0	1	1	425.274	-0.0582003	-0.0583769	-0.00344929	2	-2.36916e-06	2.01359e-07
2	0	0	1	1	425.276	-0.0631984	-0.0633681	-0.003566	2	-2.37619e-06	2.2597e-07
2	0	0	1	1	425.278	-0.0681964	-0.068343	-0.00368127	2	-2.38345e-06	2.51589e-07
2	0	0	1	1	425.28	-0.0731945	-0.0733539	-0.00382717	2	-2.39097e-06	2.80738e-07
2	0	0	1	1	425.282	-0.0781926	-0.0783578	-0.00394394	2	-2.39876e-06	3.09039e-07
2	0	0	1	1	425.284	-0.0831907	-0.0833407	-0.00407002	2	-2.40678e-06	3.39198e-07
2	0	0	1	1	425.286	-0.0881888	-0.0883323	-0.00420529	2	-2.41507e-06	3.71463e-07
2	0	0	1	1	425.288	-0.0931869	-0.093325	-0.00433494	2	-2.42362e-06	4.04559e-07
2	0	0	1	1	425.29	-0.098185	-0.0983274	-0.00448526	2	-2.43246e-06	4.41024e-07
2	0	0	1	1	425.292	-0.103183	-0.103333	-0.0046158	2	-2.44157e-06	4.76967e-07
2	0	0	1	1	425.294	-0.108181	-0.108327	-0.00476131	2	-2.45096e-06	5.15778e-07
2	0	0	1	1	425.296	-0.113179	-0.113298	-0.0048995	2	-2.46064e-06	5.55103e-07
2	0	0	1	1	425.298	-0.118177	-0.118319	-0.00509278	2	-2.47065e-06	6.02573e-07
2	0	0	1	1	425.3	-0.123175	-0.123314	-0.00526005	2	-2.48102e-06	6.48637e-07
2	0	0	1	1	425.302	-0.128174	-0.128323	-0.00543297	2	-2.49173e-06	6.97174e-07
2	0	0	1	1	425.304	-0.133172	-0.133323	-0.00561604	2	-2.5028e-06	7.48748e-07
2	0	0	1	1	425.306	-0.13817	-0.138328	-0.00581835	2	-2.51425e-06	8.04839e-07
2	0	0	1	1	425.308	-0.143168	-0.143329	-0.00603098	2	-2.52613e-06	8.64414e-07
2	0	0	1	1	425.31	-0.148166	-0.14831	-0.00622766	2	-2.5384e-06	9.23626e-07
2	0	0	1	1	425.312	-0.153164	-0.153313	-0.00645222	2	-2.5511e-06	9.89207e-07
2	0	0	1	1	425.314	-0.158162	-0.158309	-0.00669187	2	-2.56427e-06	1.05938e-06
2	0	0	1	1	425.316	-0.16316	-0.163313	-0.00696764	2	-2.57796e-06	1.13791e-06
2	0	0	1	1	425.318	-0.168158	-0.168334	-0.00722138	2	-2.59217e-06	1.21561e-06
2	0	0	1	1	425.32	-0.173156	-0.173338	-0.00752563	2	-2.60694e-06	1.30448e-06
2	0	0	1	1	425.322	-0.178155	-0.178322	-0.00781007	2	-2.62231e-06	1.39271e-06
2	0	0	1	1	425.324	-0.183153	-0.18332	-0.00812915	2	-2.63828e-06	1.49023e-06
2	0	0	1	1	425.326	-0.188151	-0.188332	-0.00846351	2	-2.65491e-06	1.59395e-06
2	0	0	1	1	425.328	-0.193149	-0.193319	-0.0088038	2	-2.67221e-06	1.70194e-06
2	0	0	1	1	425.33	-0.198147	-0.198292	-0.00912096	2	-2.69017e-06	1.80861e-06
2	0	0	1	1	425.332	-0.203145	-0.203302	-0.00949125	2	-2.70882e-06	1.92959e-06
2	0	0	1	1	425.334	-0.208143	-0.208289	-0.00985335	2	-2.7282e-06	2.05235e-06
2	0	0	1	1	425.336	-0.213141	-0.213328	-0.0102565	2	-2.74834e-06	2.18801e-06
2	0	0	1	1	425.338	-0.218139	-0.21832	-0.0106475	2	-2.76929e-06	2.32455e-06
2	0	0	1	1	425.34	-0.223137	-0.223314	-0.0110617	2	-2.79103e-06	2.47023e-06
2	0	0	1	1	425.342	-0.228135	-0.22831	-0.0114185	2	-2.81355e-06	2.60695e-06
2	0	0	1	1	425.344	-0.233134	-0.233303	-0.0118333	2	-2.83684e-06	2.76074e-06
2	0	0	1	1	425.346	-0.238132	-0.238305	-0.0122619	2	-2.86098e-06	2.92207e-06
2	0	0	1	1	425.348	-0.24313	-0.243306	-0.012639	2	-2.88592e-06	3.07514e-06
2	0	0	1	1	425.35	-0.248128	-0.248298	-0.0130191	2	-2.91161e-06	3.23262e-06
2	0	0	1	1	425.352	-0.253126	-0.253297	-0.0133883	2	-2.93806e-06	3.39121e-06
2	0	0	1	1	425.354	-0.258124	-0.258285	-0.0137483	2	-2.96523e-06	3.55098e-06
2	0	0	1	1	425.356	-0.263122	-0.263281	-0.0141346	2	-2.99315e-06	3.72137e-06
2	0	0	1	1	425.358	-0.26812	-0.268283	-0.0145109	2	-3.02183e-06	3.89302e-06
2	0	0	1	1	425.36	-0.273118	-0.273267	-0.0148246	2	-3.0512e-06	4.05108e-06
2	0	0	1	1	425.362	-0.278116	-0.278251	-0.01508	2	-3.08113e-06	4.19603e-06
2	0	0	1	1	425.364	-0.283114	-0.283244	-0.0154364	2	-3.11168e-06	4.37227e-06
2	0	0	1	1	425.366	-0.288113	-0.28825	-0.0157007	2	-3.14285e-06	4.52574e-06
2	0	0	1	1	425.368	-0.293111	-0.29326	-0.0159677	2	-3.17454e-06	4.68268e-06
2	0	0	1	1	425.37	-0.298109	-0.298283	-0.016271	2	-3.2068e-06	4.85337e-06
2	0	0	1	1	425.372	-0.303107	-0.303265	-0.016503	2	-3.2396e-06	5.00478e-06
2	0	0	1	1	425.374	-0.308105	-0.308299	-0.0166808	2	-3.27281e-06	5.14267e-06
2	0	0	1	1	425.376	-0.313103	-0.313292	-0.0169205	2	-3.30643e-06	5.30105e-06
2	0	0	1	1	425.378	-0.318101	-0.318292	-0.0170901	2	-3.34047e-06	5.43965e-06
2	0	0	1	1	425.38	-0.323099	-0.323276	-0.017261	2	-3.37483e-06	5.58007e-06
2	0	0	1	1	425.382	-0.328097	-0.328259	-0.0173612	2	-3.40946e-06	5.69899e-06
2	0	0	1	1	425.384	-0.333095	-0.333277	-0.0175597	2	-3.44441e-06	5.85225e-06
2	0	0	1	1	425.386	-0.338094	-0.338268	-0.0176469	2	-3.47961e-06	5.96937e-06
2	0	0	1	1	425.388	-0.343092	-0.343292	-0.0176892	2	-3.51496e-06	6.07257e-06
2	0	0	1	1	425.39	-0.34809	-0.348295	-0.0177567	2	-3.55042e-06	6.18456e-06
2	0	0	1	1	425.392	-0.353088	-0.353297	-0.0177922	2	-3.58598e-06	6.28595e-06
2	0	0	1	1	425.394	-0.358086	-0.358287	-0.0177729	2	-3.62154e-06	6.3678e-06
2	0	0	1	1	425.396	-0.363084	-0.363272	-0.0177609	2	-3.65708e-06	6.45204e-06
2	0	0	1	1	425.398	-0.368082	-0.368272	-0.0177319	2	-3.69257e-06	6.53017e-06
2	0	0	1	1	425.4	-0.37308	-0.373259	-0.0177334	2	-3.72804e-06	6.61914e-06
2	0	0	1	1	425.402	-0.378078	-0.378261	-0.0177318	2	-3.7635e-06	6.70724e-06
2	0	0	1	1	425.404	-0.383076	-0.383289	-0.0176325	2	-3.79885e-06	6.75835e-06
2	0	0	1	1	425.406	-0.388074	-0.388275	-0.0175435	2	-3.83402e-06	6.81171e-06
2	0	0	1	1	425.408	-0.393073	-0.393302	-0.0174492	2	-3.86899e-06	6.86282e-06
2	0	0	1	1	425.41	-0.398071	-0.398286	-0.0174061	2	-3.90385e-06	6.93258e-06
2	0	0	1	1	425.412	-0.403069	-0.403278	-0.0173164	2	-3.93857e-06	6.98332e-06
2	0	0	1	1	425.414	-0.408067	-0.408261	-0.0172119	2	-3.97308e-06	7.02695e-06
2	0	0	1	1	425.416	-0.413065	-0.41327	-0.0171847	2	-4.00748e-06	7.10191e-06
2	0	0	1	1	425.418	-0.418063	-0.418253	-0.0170587	2	-4.04172e-06	7.13486e-06
2	0	0	1	1	425.42	-0.423061	-0.423263	-0.0169401	2	-4.0757e-06	7.1701e-06
2	0	0	1	1	425.422	-0.428059	-0.428248	-0.0168857	2	-4.10951e-06	7.23126e-06
2	0	0	1	1	425.424	-0.433057	-0.433225	-0.0168316	2	-4.14323e-06	7.29187e-06
2	0	0	1	1	425.426	-0.438148	-0.438342	-0.0167782	2	-4.17684e-06	7.35458e-06
2	0	0	1	1	425.428	-0.44322	-0.443402	-0.0167095	2	-4.21032e-06	7.40901e-06
2	0	0	1	1	425.43	-0.448218	-0.448382	-0.0166048	2	-4.24362e-06	7.44528e-06
2	0	0	1	1	425.432	-0.453216	-0.453375	-0.016526	2	-4.27674e-06	7.49247e-06
2	0	0	1	1	425.434	-0.458214	-0.458397	-0.0164747	2	-4.30974e-06	7.55197e-06
2	0	0	1	1	425.436	-0.463212	-0.463389	-0.0164187	2	-4.34263e-06	7.60825e-06
2	0	0	1	1	425.438	-0.468211	-0.468408	-0.0164005	2	-4.37544e-06	7.68211e-06
2	0	0	1	1	425.44	-0.473209	-0.4734	-0.0163706	2	-4.4082e-06	7.74982e-06
2	0	0	1	1	425.442	-0.478207	-0.47841	-0.016316	2	-4.44089e-06	7.80571e-06
2	0	0	1	1	425.444	-0.483205	-0.483397	-0.0162797	2	-4.47348e-06	7.86958e-06
2	0	0	1	1	425.446	-0.488203	-0.488401	-0.0162155	2	-4.50597e-06	7.91968e-06
2	0	0	1	1	425.448	-0.493201	-0.493385	-0.0162029	2	-4.53838e-06	7.99425e-06
2	0	0	1	1	425.45	-0.498199	-0.498379	-0.0161457	2	-4.57072e-06	8.04668e-06
2	0	0	1	1	425.452	-0.503197	-0.503406	-0.0161153	2	-4.60298e-06	8.11251e-06
2	0	0	1	1	425.454	-0.508195	-0.508401	-0.0161281	2	-4.63521e-06	8.19951e-06
2	0	0	1	1	425.456	-0.513193	-0.513402	-0.0160943	2	-4.66743e-06	8.26285e-06
2	0	0	1	1	425.458	-0.518192	-0.518391	-0.0161121	2	-4.69964e-06	8.35238e-06
2	0	0	1	1	425.46	-0.52319	-0.523379	-0.0160438	2	-4.73179e-06	8.39702e-06
2	0	0	1	1	425.462	-0.528188	-0.528383	-0.0160542	2	-4.7639e-06	8.48275e-06
2	0	0	1	1	425.464	-0.533186	-0.53337	-0.0160424	2	-4.79599e-06	8.55653e-06
2	0	0	1	1	425.466	-0.538184	-0.538369	-0.0160481	2	-4.82808e-06	8.63982e-06
2	0	0	1	1	425.468	-0.543182	-0.543375	-0.016099	2	-4.86023e-06	8.74777e-06
2	0	0	1	1	425.47	-0.54818	-0.54837	-0.0161	2	-4.89243e-06	8.82876e-06
2	0	0	1	1	425.472	-0.553178	-0.553371	-0.016172	2	-4.9247e-06	8.94911e-06
2	0	0	1	1	425.474	-0.558176	-0.558391	-0.0161865	2	-4.95706e-06	9.0384e-06
2	0	0	1	1	425.476	-0.563174	-0.563391	-0.0162375	2	-4.98949e-06	9.14806e-06
2	0	0	1	1	425.478	-0.568172	-0.568392	-0.0162713	2	-5.022e-06	9.24847e-06
2	0	0	1	1	425.48	-0.573171	-0.573383	-0.0162872	2	-5.05456e-06	9.3388e-06
2	0	0	1	1	425.482	-0.578169	-0.578382	-0.0162806	2	-5.08713e-06	9.41639e-06
2	0	0	1	1	425.484	-0.583167	-0.583362	-0.0163806	2	-5.1198e-06	9.55582e-06
2	0	0	1	1	425.486	-0.588165	-0.588365	-0.0164826	2	-5.15267e-06	9.69779e-06
2	0	0	1	1	425.488	-0.593163	-0.593354	-0.0164965	2	-5.18565e-06	9.78824e-06
2	0	0	1	1	425.489	-0.597661	-0.59787	-0.0165685	2	-5.21541e-06	9.90581e-06
2	0	0	1	1	425.49	-0.599827	-0.600024	-0.0166235	2	-5.23034e-06	9.97451e-06
2	0	0	0	1	425.491	-0.600493	-0.600668	-0.0166663	2	-5.23367e-06	1.00109e-05