File: TAP_Report/Data/MB_PB/100 uM MB 10mM PB  second ito_04_CV_C01_2.mpt
EC-Lab ASCII FILE
Nb header lines : 53

Cyclic Voltammetry

Run on channel : 1 (SN 0696)
User :
Electrode connection : standard
Ewe ctrl range : min = -10.00 V, max = 10.00 V
Ewe,I filtering : 50 kHz
Channel : Grounded
Acquisition started on : 05/17/2017 12:39:23
Saved on :
	File : 100 uM MB 10mM PB  second ito_04_CV_C01.mpr
	Directory : \\userfs\st659\w2k\EC-Lab\Data\ITO Characterisation 17-5-17\
	Host : 144.32.136.43
Device : SP-300 (SN 0182)
Address : USB
EC-Lab for windows v10.44 (software)
Internet server v10.44 (firmware)
Command interpretor v10.44 (firmware)
Electrode material :
Initial state :
Electrolyte :
Comments :
Cable : standard
Electrode surface area : 0.001 cm²
Characteristic mass : 0.001 g
Equivalent Weight : 0.000 g/eq.
Density : 0.000 g/cm3
Ei (V)              0.000
vs.                 Eoc
dE/dt               250.000
dE/dt unit          mV/s
E1 (V)              0.100
vs.                 Ref
Step percent        50
N                   10
E range min (V)     -10.000
E range max (V)     10.000
I Range             Auto
I Range min         Unset
I Range max         Unset
I Range init        Unset
Bandwidth           8
E2 (V)              -0.600
vs.                 Ref
nc cycles           2
Reverse Scan        1
Ef (V)              0.000
vs.                 Eoc

mode	ox/red	error	control changes	counter inc.	time/s	control/V	Ewe/V	<I>/mA	cycle number	(Q-Qo)/C	P/W
2	1	0	0	1	394.246	-0.60016	-0.600405	-0.00700739	2	-1.28456e-05	4.20727e-06
2	1	0	1	1	394.254	-0.598311	-0.59854	-0.00619755	2	-1.2892e-05	3.70948e-06
2	1	0	1	1	394.267	-0.595012	-0.595241	-0.00571393	2	-1.29698e-05	3.40116e-06
2	1	0	0	1	394.28	-0.591664	-0.591881	-0.00547222	2	-1.30442e-05	3.2389e-06
2	1	0	1	1	394.294	-0.588315	-0.588539	-0.00528848	2	-1.31157e-05	3.11248e-06
2	1	0	1	1	394.307	-0.585016	-0.585246	-0.00512763	2	-1.31838e-05	3.00093e-06
2	1	0	0	1	394.32	-0.581667	-0.581876	-0.00498999	2	-1.3251e-05	2.90356e-06
2	1	0	1	1	394.334	-0.578319	-0.578548	-0.00485961	2	-1.33164e-05	2.81152e-06
2	1	0	1	1	394.347	-0.57502	-0.575256	-0.00474152	2	-1.33793e-05	2.72759e-06
2	1	0	0	1	394.36	-0.571671	-0.571904	-0.00462887	2	-1.34415e-05	2.64727e-06
2	1	0	1	1	394.374	-0.568339	-0.568581	-0.00452462	2	-1.35018e-05	2.57261e-06
2	1	0	1	1	394.387	-0.565007	-0.565266	-0.0044295	2	-1.35608e-05	2.50385e-06
2	1	0	0	1	394.4	-0.561658	-0.56189	-0.00433359	2	-1.36189e-05	2.435e-06
2	1	0	0	1	394.414	-0.55836	-0.55859	-0.00425078	2	-1.3675e-05	2.37444e-06
2	1	0	1	1	394.427	-0.555011	-0.555244	-0.00416328	2	-1.37308e-05	2.31164e-06
2	1	0	0	1	394.44	-0.551662	-0.551872	-0.00408039	2	-1.37855e-05	2.25185e-06
2	1	0	0	1	394.454	-0.548363	-0.548579	-0.00400713	2	-1.38383e-05	2.19823e-06
2	1	0	1	1	394.467	-0.545015	-0.545221	-0.00393567	2	-1.3891e-05	2.14581e-06
2	1	0	0	1	394.48	-0.541666	-0.541869	-0.00386293	2	-1.39427e-05	2.0932e-06
2	1	0	0	1	394.494	-0.538367	-0.538575	-0.00379831	2	-1.39927e-05	2.04567e-06
2	1	0	1	1	394.507	-0.535018	-0.535224	-0.00373166	2	-1.40426e-05	1.99728e-06
2	1	0	0	1	394.52	-0.53167	-0.531884	-0.00367061	2	-1.40917e-05	1.95234e-06
2	1	0	0	1	394.534	-0.528371	-0.528593	-0.00360817	2	-1.41392e-05	1.90725e-06
2	1	0	1	1	394.547	-0.525017	-0.525239	-0.00355052	2	-1.41866e-05	1.86487e-06
2	1	0	1	1	394.56	-0.521707	-0.521935	-0.0034937	2	-1.42325e-05	1.82348e-06
2	1	0	0	1	394.574	-0.518358	-0.518556	-0.00343816	2	-1.42784e-05	1.78288e-06
2	1	0	1	1	394.587	-0.515009	-0.515233	-0.00338903	2	-1.43236e-05	1.74614e-06
2	1	0	1	1	394.6	-0.511711	-0.511936	-0.00333612	2	-1.43675e-05	1.70788e-06
2	1	0	0	1	394.614	-0.508362	-0.508582	-0.00328513	2	-1.44113e-05	1.67076e-06
2	1	0	1	1	394.627	-0.505013	-0.505245	-0.00323707	2	-1.44544e-05	1.63551e-06
2	1	0	1	1	394.64	-0.501715	-0.501938	-0.00318726	2	-1.44963e-05	1.5998e-06
2	1	0	0	1	394.654	-0.498366	-0.498578	-0.00314107	2	-1.45381e-05	1.56607e-06
2	1	0	1	1	394.667	-0.495017	-0.495226	-0.00309686	2	-1.45794e-05	1.53364e-06
2	1	0	1	1	394.68	-0.491718	-0.491925	-0.00305257	2	-1.46194e-05	1.50164e-06
2	1	0	0	1	394.694	-0.48837	-0.488609	-0.00301138	2	-1.46595e-05	1.47139e-06
2	1	0	1	1	394.707	-0.485021	-0.485242	-0.00296757	2	-1.4699e-05	1.43999e-06
2	1	0	1	1	394.72	-0.481717	-0.481943	-0.00292543	2	-1.47374e-05	1.40989e-06
2	1	0	0	1	394.734	-0.478357	-0.478576	-0.00288291	2	-1.47758e-05	1.37969e-06
2	1	0	0	1	394.747	-0.475058	-0.475275	-0.00284247	2	-1.4813e-05	1.35095e-06
2	1	0	1	1	394.76	-0.471709	-0.471927	-0.00280665	2	-1.48503e-05	1.32454e-06
2	1	0	0	1	394.774	-0.468361	-0.468586	-0.00276738	2	-1.48871e-05	1.29676e-06
2	1	0	0	1	394.787	-0.465062	-0.46527	-0.00272716	2	-1.49228e-05	1.26887e-06
2	1	0	1	1	394.8	-0.461713	-0.461911	-0.00269218	2	-1.49586e-05	1.24355e-06
2	1	0	0	1	394.814	-0.458364	-0.458574	-0.00265407	2	-1.49939e-05	1.21709e-06
2	1	0	0	1	394.827	-0.455066	-0.455252	-0.00261672	2	-1.50281e-05	1.19127e-06
2	1	0	1	1	394.84	-0.451717	-0.451904	-0.00258412	2	-1.50624e-05	1.16777e-06
2	1	0	0	1	394.854	-0.448368	-0.44857	-0.00254803	2	-1.50962e-05	1.14297e-06
2	1	0	0	1	394.867	-0.445069	-0.445264	-0.00251549	2	-1.51291e-05	1.12006e-06
2	1	0	1	1	394.88	-0.441721	-0.441934	-0.0024805	2	-1.5162e-05	1.09621e-06
2	1	0	0	1	394.893	-0.438394	-0.438616	-0.00244508	2	-1.51943e-05	1.07245e-06
2	1	0	0	1	394.907	-0.435057	-0.435261	-0.00240825	2	-1.5226e-05	1.04822e-06
2	1	0	1	1	394.92	-0.431708	-0.431908	-0.0023762	2	-1.52575e-05	1.0263e-06
2	1	0	1	1	394.933	-0.428409	-0.428608	-0.00234454	2	-1.52881e-05	1.00489e-06
2	1	0	0	1	394.947	-0.42506	-0.425271	-0.00231392	2	-1.53188e-05	9.84045e-07
2	1	0	1	1	394.96	-0.421712	-0.421926	-0.00228056	2	-1.5349e-05	9.62229e-07
2	1	0	1	1	394.973	-0.418413	-0.418636	-0.00224746	2	-1.53784e-05	9.40866e-07
2	1	0	0	1	394.987	-0.415064	-0.415274	-0.00221541	2	-1.54077e-05	9.20001e-07
2	1	0	1	1	395	-0.411716	-0.411928	-0.00218341	2	-1.54366e-05	8.99407e-07
2	1	0	1	1	395.013	-0.408417	-0.408631	-0.00215453	2	-1.54647e-05	8.80406e-07
2	1	0	0	1	395.027	-0.405068	-0.405278	-0.00212024	2	-1.54928e-05	8.59286e-07
2	1	0	1	1	395.04	-0.401719	-0.401925	-0.0020916	2	-1.55205e-05	8.40667e-07
2	1	0	1	1	395.053	-0.398421	-0.398649	-0.00206065	2	-1.55474e-05	8.21475e-07
2	1	0	0	1	395.067	-0.395072	-0.39529	-0.00202964	2	-1.55743e-05	8.02297e-07
2	1	0	0	1	395.08	-0.391756	-0.392	-0.00199566	2	-1.56003e-05	7.82299e-07
2	1	0	1	1	395.093	-0.388408	-0.388621	-0.00196941	2	-1.56263e-05	7.65355e-07
2	1	0	0	1	395.107	-0.385059	-0.385288	-0.00193963	2	-1.56519e-05	7.47317e-07
2	1	0	0	1	395.12	-0.38176	-0.38198	-0.00190508	2	-1.56768e-05	7.27702e-07
2	1	0	1	1	395.133	-0.378412	-0.378597	-0.00187614	2	-1.57016e-05	7.10301e-07
2	1	0	0	1	395.147	-0.375063	-0.375271	-0.00184808	2	-1.5726e-05	6.93529e-07
2	1	0	0	1	395.16	-0.371764	-0.371966	-0.00181719	2	-1.57496e-05	6.75932e-07
2	1	0	1	1	395.173	-0.368415	-0.368601	-0.00178852	2	-1.57732e-05	6.59249e-07
2	1	0	0	1	395.187	-0.365067	-0.365266	-0.00176031	2	-1.57965e-05	6.42982e-07
2	1	0	0	1	395.2	-0.361768	-0.361975	-0.00173035	2	-1.5819e-05	6.26345e-07
2	1	0	1	1	395.213	-0.358419	-0.358645	-0.00169861	2	-1.58414e-05	6.09198e-07
2	1	0	0	1	395.227	-0.35507	-0.355286	-0.00167124	2	-1.58634e-05	5.93767e-07
2	1	0	0	1	395.24	-0.351772	-0.35199	-0.00163907	2	-1.58847e-05	5.76935e-07
2	1	0	1	1	395.253	-0.348406	-0.348625	-0.00160496	2	-1.59059e-05	5.5953e-07
2	1	0	1	1	395.267	-0.345108	-0.345328	-0.00158015	2	-1.59264e-05	5.4567e-07
2	1	0	0	1	395.28	-0.341759	-0.341979	-0.00154756	2	-1.59468e-05	5.29234e-07
2	1	0	1	1	395.293	-0.33841	-0.338594	-0.00151229	2	-1.59668e-05	5.12051e-07
2	1	0	1	1	395.307	-0.335111	-0.335307	-0.00148606	2	-1.5986e-05	4.98287e-07
2	1	0	0	1	395.32	-0.331763	-0.331944	-0.00145174	2	-1.60052e-05	4.81897e-07
2	1	0	1	1	395.333	-0.328414	-0.328591	-0.00142009	2	-1.60239e-05	4.6663e-07
2	1	0	1	1	395.347	-0.325115	-0.325275	-0.00138856	2	-1.60419e-05	4.51663e-07
2	1	0	0	1	395.36	-0.321766	-0.321943	-0.0013579	2	-1.60597e-05	4.37165e-07
2	1	0	1	1	395.373	-0.318418	-0.318626	-0.00132523	2	-1.60772e-05	4.22254e-07
2	1	0	1	1	395.387	-0.315119	-0.315317	-0.00128878	2	-1.60939e-05	4.06374e-07
2	1	0	0	1	395.4	-0.31177	-0.311952	-0.00125649	2	-1.61104e-05	3.91964e-07
2	1	0	1	1	395.413	-0.308422	-0.308613	-0.0012207	2	-1.61264e-05	3.76724e-07
2	1	0	1	1	395.427	-0.305112	-0.3053	-0.00117882	2	-1.61417e-05	3.59892e-07
2	1	0	0	1	395.44	-0.301757	-0.301937	-0.00114681	2	-1.61567e-05	3.46266e-07
2	1	0	0	1	395.453	-0.298459	-0.298626	-0.001107	2	-1.61711e-05	3.3058e-07
2	1	0	1	1	395.467	-0.29511	-0.295283	-0.00106347	2	-1.61851e-05	3.14024e-07
2	1	0	0	1	395.48	-0.291761	-0.291917	-0.00102784	2	-1.61985e-05	3.00042e-07
2	1	0	0	1	395.493	-0.288462	-0.288608	-0.000983067	2	-1.62112e-05	2.83721e-07
2	1	0	1	1	395.507	-0.285114	-0.285269	-0.000939455	2	-1.62236e-05	2.67998e-07
2	1	0	0	1	395.52	-0.281765	-0.281924	-0.000896368	2	-1.62353e-05	2.52708e-07
2	1	0	0	1	395.533	-0.278466	-0.27862	-0.000850106	2	-1.62463e-05	2.36857e-07
2	1	0	1	1	395.547	-0.275118	-0.275297	-0.000803991	2	-1.62568e-05	2.21337e-07
2	1	0	0	1	395.56	-0.271769	-0.271945	-0.000751482	2	-1.62667e-05	2.04362e-07
2	1	0	0	1	395.573	-0.26847	-0.268636	-0.000698747	2	-1.62757e-05	1.87709e-07
2	1	0	1	1	395.587	-0.265121	-0.265284	-0.000643775	2	-1.62842e-05	1.70783e-07
2	1	0	0	1	395.6	-0.261789	-0.261946	-0.000582423	2	-1.62918e-05	1.52564e-07
2	1	0	0	1	395.613	-0.258457	-0.258626	-0.00052719	2	-1.62986e-05	1.36345e-07
2	1	0	1	1	395.627	-0.255109	-0.255288	-0.000467025	2	-1.63047e-05	1.19226e-07
2	1	0	1	1	395.64	-0.25181	-0.251987	-0.000400419	2	-1.63099e-05	1.009e-07
2	1	0	0	1	395.653	-0.248461	-0.248629	-0.000332233	2	-1.63143e-05	8.26027e-08
2	1	0	1	1	395.667	-0.245112	-0.245303	-0.000258448	2	-1.63177e-05	6.33979e-08
2	1	0	1	1	395.68	-0.241814	-0.241983	-0.000184647	2	-1.63201e-05	4.46815e-08
2	1	0	0	1	395.693	-0.238465	-0.238644	-0.000108329	2	-1.63214e-05	2.58519e-08
2	1	0	1	1	395.707	-0.235116	-0.235298	-2.99399e-05	2	-1.63218e-05	7.0448e-09
2	1	0	1	1	395.72	-0.231817	-0.232016	4.73837e-05	2	-1.63211e-05	1.09938e-08
2	1	0	0	1	395.733	-0.228469	-0.228659	0.000138847	2	-1.63193e-05	3.17485e-08
2	1	0	1	1	395.747	-0.22512	-0.225317	0.000228112	2	-1.63163e-05	5.13976e-08
2	1	0	1	1	395.76	-0.221821	-0.222012	0.000319598	2	-1.63122e-05	7.09544e-08
2	1	0	0	1	395.773	-0.218467	-0.21865	0.000417203	2	-1.63067e-05	9.12213e-08
2	1	0	0	1	395.786	-0.215157	-0.215349	0.000512506	2	-1.63e-05	1.10368e-07
2	1	0	1	1	395.8	-0.211808	-0.211988	0.00061277	2	-1.62919e-05	1.299e-07
2	1	0	0	1	395.813	-0.20846	-0.208614	0.00071686	2	-1.62824e-05	1.49547e-07
2	1	0	0	1	395.826	-0.205161	-0.205329	0.000814245	2	-1.62717e-05	1.67188e-07
2	1	0	1	1	395.84	-0.201812	-0.201983	0.000917899	2	-1.62596e-05	1.854e-07
2	1	0	0	1	395.853	-0.198463	-0.198609	0.0010235	2	-1.6246e-05	2.03277e-07
2	1	0	0	1	395.866	-0.195165	-0.195331	0.00112217	2	-1.62313e-05	2.19196e-07
2	1	0	1	1	395.88	-0.191816	-0.191986	0.00122503	2	-1.6215e-05	2.35188e-07
2	1	0	0	1	395.893	-0.188467	-0.188636	0.00133722	2	-1.61973e-05	2.52248e-07
2	1	0	0	1	395.906	-0.185169	-0.185357	0.0014362	2	-1.61784e-05	2.66209e-07
2	1	0	1	1	395.92	-0.18182	-0.182004	0.0015353	2	-1.61579e-05	2.7943e-07
2	1	0	0	1	395.933	-0.178471	-0.178644	0.00162823	2	-1.61362e-05	2.90873e-07
2	1	0	0	1	395.946	-0.175167	-0.175357	0.00171499	2	-1.61135e-05	3.00736e-07
2	1	0	1	1	395.96	-0.171807	-0.171992	0.00180191	2	-1.60894e-05	3.09914e-07
2	1	0	1	1	395.973	-0.168508	-0.168701	0.00188648	2	-1.60645e-05	3.18253e-07
2	1	0	0	1	395.986	-0.165159	-0.165328	0.00196336	2	-1.60381e-05	3.24599e-07
2	1	0	1	1	396	-0.161811	-0.161978	0.00203168	2	-1.60108e-05	3.29089e-07
2	1	0	1	1	396.013	-0.158512	-0.158685	0.00208896	2	-1.59831e-05	3.31487e-07
2	1	0	0	1	396.026	-0.155163	-0.155322	0.00214961	2	-1.59541e-05	3.33881e-07
2	1	0	1	1	396.04	-0.151815	-0.151975	0.00218704	2	-1.59245e-05	3.32376e-07
2	1	0	1	1	396.053	-0.148516	-0.148678	0.00222804	2	-1.58948e-05	3.3126e-07
2	1	0	0	1	396.066	-0.145167	-0.145345	0.00226272	2	-1.58641e-05	3.28874e-07
2	1	0	1	1	396.08	-0.141818	-0.141981	0.00228444	2	-1.58331e-05	3.24348e-07
2	1	0	1	1	396.093	-0.13852	-0.138695	0.00230084	2	-1.58023e-05	3.19114e-07
2	1	0	0	1	396.106	-0.135171	-0.135319	0.00231184	2	-1.57708e-05	3.12836e-07
2	1	0	1	1	396.12	-0.131845	-0.131999	0.00230849	2	-1.57396e-05	3.04719e-07
2	1	0	1	1	396.133	-0.128507	-0.128681	0.00230904	2	-1.57084e-05	2.97129e-07
2	1	0	0	1	396.146	-0.125158	-0.125298	0.00230339	2	-1.56769e-05	2.8861e-07
2	1	0	0	1	396.16	-0.121859	-0.122002	0.00228965	2	-1.56461e-05	2.79342e-07
2	1	0	1	1	396.173	-0.118511	-0.118661	0.00227343	2	-1.5615e-05	2.69767e-07
2	1	0	0	1	396.186	-0.115162	-0.115292	0.00225005	2	-1.55842e-05	2.59412e-07
2	1	0	0	1	396.2	-0.111863	-0.111987	0.00222748	2	-1.55541e-05	2.49448e-07
2	1	0	1	1	396.213	-0.108514	-0.108648	0.00219685	2	-1.55239e-05	2.38684e-07
2	1	0	0	1	396.226	-0.105166	-0.105299	0.00216642	2	-1.54942e-05	2.28121e-07
2	1	0	0	1	396.24	-0.101867	-0.10201	0.00213699	2	-1.54652e-05	2.17995e-07
2	1	0	1	1	396.253	-0.0985182	-0.0986775	0.00210646	2	-1.54363e-05	2.0786e-07
2	1	0	0	1	396.266	-0.0951695	-0.0953128	0.00207464	2	-1.54078e-05	1.9774e-07
2	1	0	0	1	396.28	-0.0918707	-0.0920095	0.00204711	2	-1.538e-05	1.88353e-07
2	1	0	1	1	396.293	-0.088522	-0.0886603	0.00201474	2	-1.53523e-05	1.78628e-07
2	1	0	1	1	396.306	-0.0852066	-0.085361	0.00198921	2	-1.53253e-05	1.69801e-07
2	1	0	0	1	396.32	-0.0818579	-0.0820199	0.00196172	2	-1.52983e-05	1.609e-07
2	1	0	1	1	396.333	-0.0785092	-0.0786694	0.00193125	2	-1.52717e-05	1.5193e-07
2	1	0	1	1	396.346	-0.0752104	-0.0753603	0.00190252	2	-1.52459e-05	1.43374e-07
2	1	0	0	1	396.36	-0.0718617	-0.0720313	0.00187937	2	-1.522e-05	1.35373e-07
2	1	0	1	1	396.373	-0.068513	-0.0686784	0.0018505	2	-1.51945e-05	1.2709e-07
2	1	0	1	1	396.386	-0.0652143	-0.0653861	0.00183041	2	-1.51697e-05	1.19683e-07
2	1	0	0	1	396.4	-0.0618655	-0.0620392	0.00181132	2	-1.51447e-05	1.12373e-07
2	1	0	1	1	396.413	-0.0585168	-0.0586981	0.00179276	2	-1.51201e-05	1.05232e-07
2	1	0	1	1	396.426	-0.0552181	-0.0553983	0.00177235	2	-1.5096e-05	9.81854e-08
2	1	0	0	1	396.44	-0.0518693	-0.0520472	0.00175308	2	-1.50719e-05	9.12431e-08
2	1	0	1	1	396.453	-0.0485206	-0.0486818	0.00173626	2	-1.5048e-05	8.45244e-08
2	1	0	1	1	396.466	-0.0452219	-0.0453979	0.00172162	2	-1.50246e-05	7.81582e-08
2	1	0	0	1	396.48	-0.0418565	-0.0420106	0.00171234	2	-1.50011e-05	7.19364e-08
2	1	0	0	1	396.493	-0.0385577	-0.0387159	0.0016937	2	-1.49781e-05	6.55732e-08
2	1	0	1	1	396.506	-0.035209	-0.0353705	0.00167897	2	-1.49549e-05	5.9386e-08
2	1	0	0	1	396.52	-0.0318603	-0.0320209	0.0016648	2	-1.4932e-05	5.33084e-08
2	1	0	0	1	396.533	-0.0285616	-0.0287154	0.00166032	2	-1.49095e-05	4.76766e-08
2	1	0	1	1	396.546	-0.0252128	-0.0253643	0.00164617	2	-1.48868e-05	4.17541e-08
2	1	0	0	1	396.56	-0.0218641	-0.0220105	0.0016371	2	-1.48643e-05	3.60333e-08
2	1	0	0	1	396.573	-0.0185654	-0.0187129	0.00162369	2	-1.48422e-05	3.03839e-08
2	1	0	1	1	396.586	-0.0152166	-0.0153795	0.00161787	2	-1.482e-05	2.48819e-08
2	1	0	0	1	396.6	-0.0118679	-0.012039	0.00160772	2	-1.47978e-05	1.93554e-08
2	1	0	0	1	396.613	-0.00856918	-0.00872672	0.00160303	2	-1.47761e-05	1.39891e-08
2	1	0	1	1	396.626	-0.00522046	-0.00536893	0.00159349	2	-1.47541e-05	8.55535e-09
2	1	0	0	1	396.64	-0.00187173	-0.00203296	0.00159161	2	-1.47323e-05	3.23568e-09
2	1	0	0	1	396.653	0.00145017	0.00127043	0.00158916	2	-1.47108e-05	2.01891e-09
2	1	0	1	1	396.666	0.00479239	0.00467781	0.00158159	2	-1.4689e-05	7.39839e-09
2	1	0	1	1	396.679	0.00809113	0.00795579	0.00157502	2	-1.46676e-05	1.25305e-08
2	1	0	0	1	396.693	0.0114399	0.0113098	0.00157237	2	-1.4646e-05	1.77832e-08
2	1	0	1	1	396.706	0.0147886	0.0146788	0.00156611	2	-1.46244e-05	2.29887e-08
2	1	0	1	1	396.719	0.0180873	0.0179823	0.00156376	2	-1.46032e-05	2.81201e-08
2	1	0	0	1	396.733	0.021436	0.0213294	0.00156121	2	-1.45817e-05	3.32996e-08
2	1	0	1	1	396.746	0.0247848	0.0246586	0.00155649	2	-1.45603e-05	3.83808e-08
2	1	0	1	1	396.759	0.0280835	0.0279628	0.00155771	2	-1.45393e-05	4.35578e-08
2	1	0	0	1	396.773	0.0314322	0.0313036	0.00155492	2	-1.45179e-05	4.86744e-08
2	1	0	1	1	396.786	0.0347809	0.034666	0.00155592	2	-1.44965e-05	5.39377e-08
2	1	0	1	1	396.799	0.0380797	0.0379514	0.0015513	2	-1.44755e-05	5.88741e-08
2	1	0	0	1	396.813	0.0414284	0.0413223	0.00155352	2	-1.44541e-05	6.41951e-08
2	1	0	1	1	396.826	0.0447661	0.0446546	0.00155577	2	-1.44329e-05	6.94722e-08
2	1	0	1	1	396.839	0.0480925	0.0480024	0.00155199	2	-1.44117e-05	7.44994e-08
2	1	0	0	1	396.853	0.0514412	0.0513358	0.00155293	2	-1.43903e-05	7.97212e-08
2	1	0	0	1	396.866	0.05474	0.0546394	0.00155414	2	-1.43693e-05	8.49172e-08
2	1	0	1	1	396.879	0.0580887	0.0580095	0.00155381	2	-1.43479e-05	9.01357e-08
2	1	0	0	1	396.893	0.0614374	0.0613544	0.00155129	2	-1.43266e-05	9.51786e-08
2	1	0	0	1	396.906	0.0647362	0.0646524	0.00155146	2	-1.43056e-05	1.00306e-07
2	1	0	1	1	396.919	0.0680849	0.0679829	0.00155601	2	-1.42842e-05	1.05782e-07
2	1	0	0	1	396.933	0.0714336	0.0713324	0.00155777	2	-1.42628e-05	1.1112e-07
2	1	0	0	1	396.946	0.0747324	0.0746427	0.00155736	2	-1.42417e-05	1.16245e-07
2	1	0	1	1	396.959	0.0780811	0.0779996	0.00156348	2	-1.42202e-05	1.21951e-07
2	1	0	0	1	396.973	0.0814298	0.081336	0.0015627	2	-1.41988e-05	1.27104e-07
2	1	0	0	1	396.986	0.0847285	0.0846213	0.00156367	2	-1.41776e-05	1.3232e-07
2	1	0	1	1	396.999	0.0880884	0.0879835	0.00156681	2	-1.41561e-05	1.37854e-07
2	1	0	1	1	397.013	0.0913927	0.0912782	0.00156763	2	-1.41348e-05	1.4309e-07
2	1	0	0	1	397.026	0.0947414	0.0946365	0.00157569	2	-1.41132e-05	1.49118e-07
2	1	0	1	1	397.039	0.0980901	0.0979856	0.00157696	2	-1.40916e-05	1.5452e-07
2	0	0	0	1	397.047	0.0999061	0.0997803	0.00155408	2	-1.4079e-05	1.55067e-07
2	0	0	1	1	397.055	0.0980735	0.0979433	0.00100901	2	-1.40714e-05	9.88261e-08
2	0	0	0	1	397.068	0.0947247	0.0945981	0.000794202	2	-1.406e-05	7.51299e-08
2	0	0	0	1	397.081	0.091426	0.0912861	0.000698857	2	-1.40507e-05	6.3796e-08
2	0	0	1	1	397.095	0.0880717	0.0879156	0.000618857	2	-1.40425e-05	5.44071e-08
2	0	0	1	1	397.108	0.0847619	0.0846224	0.000554287	2	-1.40353e-05	4.69051e-08
2	0	0	0	1	397.121	0.0814132	0.0812903	0.000493386	2	-1.40288e-05	4.01075e-08
2	0	0	1	1	397.135	0.0780644	0.077959	0.000435824	2	-1.40232e-05	3.39764e-08
2	0	0	1	1	397.148	0.0747657	0.0746127	0.000380702	2	-1.40183e-05	2.84052e-08
2	0	0	0	1	397.161	0.071417	0.0712806	0.000332642	2	-1.40141e-05	2.37109e-08
2	0	0	1	1	397.175	0.0680682	0.0679544	0.000285019	2	-1.40105e-05	1.93683e-08
2	0	0	1	1	397.188	0.0647695	0.064656	0.000241596	2	-1.40076e-05	1.56207e-08
2	0	0	0	1	397.201	0.0614208	0.0613021	0.000195881	2	-1.40052e-05	1.20079e-08
2	0	0	1	1	397.215	0.0580721	0.0579712	0.00015475	2	-1.40034e-05	8.97104e-09
2	0	0	1	1	397.228	0.0547733	0.0546554	0.000111569	2	-1.40022e-05	6.09782e-09
2	0	0	0	1	397.256	0.0475927	0.0474289	1.05322e-05	2	-1.40021e-05	4.99532e-10
2	0	0	0	1	397.285	0.0404121	0.0401889	-8.87278e-05	2	-1.40033e-05	3.56587e-09
2	0	0	0	1	397.298	0.0371134	0.0368841	-0.000122779	2	-1.40047e-05	4.52859e-09
2	0	0	1	1	397.312	0.0337647	0.0335361	-0.000160642	2	-1.40067e-05	5.38731e-09
2	0	0	0	1	397.325	0.0304159	0.0301757	-0.000194693	2	-1.40092e-05	5.87499e-09
2	0	0	0	1	397.338	0.0271172	0.0268757	-0.000226581	2	-1.4012e-05	6.08951e-09
2	0	0	1	1	397.352	0.0237685	0.0235295	-0.000262728	2	-1.40154e-05	6.18185e-09
2	0	0	0	1	397.365	0.0204198	0.0202009	-0.000292195	2	-1.40192e-05	5.90261e-09
2	0	0	0	1	397.378	0.017121	0.0168878	-0.000325317	2	-1.40233e-05	5.4939e-09
2	0	0	1	1	397.392	0.0137723	0.0135449	-0.000358396	2	-1.4028e-05	4.85445e-09
2	0	0	0	1	397.405	0.0104236	0.0101857	-0.000391671	2	-1.40331e-05	3.98946e-09
2	0	0	0	1	397.418	0.00712483	0.00687578	-0.000420768	2	-1.40386e-05	2.89311e-09
2	0	0	1	1	397.432	0.00377611	0.00351656	-0.000453621	2	-1.40445e-05	1.59519e-09
2	0	0	0	1	397.445	0.000444049	0.000166195	-0.000488174	2	-1.40508e-05	8.1132e-11
2	0	0	0	1	397.458	-0.00288801	-0.00317946	-0.000513148	2	-1.40576e-05	1.63153e-09
2	0	0	1	1	397.472	-0.00623674	-0.00651921	-0.000542688	2	-1.40647e-05	3.5379e-09
2	0	0	1	1	397.485	-0.00953548	-0.0098163	-0.00057396	2	-1.40722e-05	5.63416e-09
2	0	0	0	1	397.498	-0.0128842	-0.0131701	-0.000602084	2	-1.40801e-05	7.9295e-09
2	0	0	1	1	397.512	-0.0162329	-0.016513	-0.000629872	2	-1.40885e-05	1.04011e-08
2	0	0	1	1	397.525	-0.0195317	-0.0198184	-0.000657949	2	-1.4097e-05	1.30395e-08
2	0	0	0	1	397.538	-0.0228804	-0.0231495	-0.000687312	2	-1.41061e-05	1.59109e-08
2	0	0	1	1	397.552	-0.0262291	-0.0264906	-0.000714247	2	-1.41156e-05	1.89209e-08
2	0	0	1	1	397.565	-0.0295279	-0.029797	-0.000744436	2	-1.41253e-05	2.2182e-08
2	0	0	0	1	397.578	-0.0328766	-0.0331462	-0.000773132	2	-1.41356e-05	2.56264e-08
2	0	0	1	1	397.592	-0.0362253	-0.0364998	-0.000799091	2	-1.41462e-05	2.91666e-08
2	0	0	1	1	397.605	-0.039524	-0.0398096	-0.00082892	2	-1.4157e-05	3.2999e-08
2	0	0	0	1	397.618	-0.0428783	-0.043165	-0.000858812	2	-1.41684e-05	3.70706e-08
2	0	0	0	1	397.632	-0.0461882	-0.0464714	-0.000883717	2	-1.418e-05	4.10676e-08
2	0	0	1	1	397.645	-0.0495369	-0.0498322	-0.000911458	2	-1.41921e-05	4.54199e-08
2	0	0	0	1	397.658	-0.0528856	-0.0531855	-0.000940087	2	-1.42046e-05	4.9999e-08
2	0	0	0	1	397.672	-0.0561844	-0.0564855	-0.000966358	2	-1.42172e-05	5.45852e-08
2	0	0	1	1	397.685	-0.0595331	-0.0598355	-0.00099349	2	-1.42305e-05	5.9446e-08
2	0	0	0	1	397.714	-0.0667182	-0.0669314	-0.00102926	2	-1.42601e-05	6.88901e-08
2	0	0	0	1	397.742	-0.0738776	-0.0740873	-0.00107842	2	-1.42905e-05	7.98974e-08
2	0	0	0	1	397.756	-0.0771764	-0.0773892	-0.00110447	2	-1.43054e-05	8.54742e-08
2	0	0	1	1	397.769	-0.0805251	-0.0807262	-0.00113283	2	-1.43209e-05	9.14494e-08
2	0	0	0	1	397.782	-0.0838738	-0.0840691	-0.00116024	2	-1.43368e-05	9.75399e-08
2	0	0	0	1	397.796	-0.0871837	-0.0873636	-0.00119121	2	-1.43529e-05	1.04068e-07
2	0	0	1	1	397.809	-0.0905379	-0.0907117	-0.00121758	2	-1.43696e-05	1.10449e-07
2	0	0	1	1	397.822	-0.0938367	-0.0940057	-0.00124857	2	-1.43864e-05	1.17372e-07
2	0	0	0	1	397.836	-0.0971854	-0.0973657	-0.00127889	2	-1.44038e-05	1.2452e-07
2	0	0	1	1	397.849	-0.100534	-0.100714	-0.00130692	2	-1.44217e-05	1.31625e-07
2	0	0	1	1	397.862	-0.103833	-0.104013	-0.00133991	2	-1.44397e-05	1.39368e-07
2	0	0	0	1	397.876	-0.107182	-0.107343	-0.00136792	2	-1.44584e-05	1.46837e-07
2	0	0	1	1	397.889	-0.11053	-0.11069	-0.00140385	2	-1.44775e-05	1.55393e-07
2	0	0	1	1	397.902	-0.113829	-0.113997	-0.00143802	2	-1.44968e-05	1.6393e-07
2	0	0	0	1	397.916	-0.117178	-0.117352	-0.00147102	2	-1.45168e-05	1.72627e-07
2	0	0	1	1	397.929	-0.120526	-0.120693	-0.00150682	2	-1.45373e-05	1.81862e-07
2	0	0	1	1	397.942	-0.123825	-0.12399	-0.00154376	2	-1.4558e-05	1.9141e-07
2	0	0	0	1	397.956	-0.127174	-0.12735	-0.00158515	2	-1.45795e-05	2.01869e-07
2	0	0	1	1	397.969	-0.130506	-0.130692	-0.00162601	2	-1.46014e-05	2.12507e-07
2	0	0	1	1	397.982	-0.133838	-0.134026	-0.00166751	2	-1.46239e-05	2.2349e-07
2	0	0	0	1	397.996	-0.137187	-0.137388	-0.00171261	2	-1.4647e-05	2.35292e-07
2	0	0	0	1	398.009	-0.140486	-0.140694	-0.00175971	2	-1.46705e-05	2.4758e-07
2	0	0	1	1	398.022	-0.143834	-0.144043	-0.00181039	2	-1.4695e-05	2.60773e-07
2	0	0	0	1	398.036	-0.147183	-0.147387	-0.00186161	2	-1.47201e-05	2.74377e-07
2	0	0	0	1	398.049	-0.150482	-0.150672	-0.00192133	2	-1.47456e-05	2.8949e-07
2	0	0	1	1	398.062	-0.15383	-0.154022	-0.00198015	2	-1.47723e-05	3.04985e-07
2	0	0	0	1	398.076	-0.157179	-0.157374	-0.00204378	2	-1.47998e-05	3.21637e-07
2	0	0	0	1	398.089	-0.160478	-0.160673	-0.00211335	2	-1.48278e-05	3.39557e-07
2	0	0	1	1	398.102	-0.163827	-0.164037	-0.00218814	2	-1.48572e-05	3.58936e-07
2	0	0	0	1	398.116	-0.167175	-0.167395	-0.00226333	2	-1.48875e-05	3.78869e-07
2	0	0	0	1	398.129	-0.170474	-0.170697	-0.00234877	2	-1.49185e-05	4.00928e-07
2	0	0	1	1	398.142	-0.173828	-0.174031	-0.00243507	2	-1.49511e-05	4.23777e-07
2	0	0	1	1	398.155	-0.177138	-0.177341	-0.00252752	2	-1.49844e-05	4.48233e-07
2	0	0	0	1	398.169	-0.180487	-0.180702	-0.00263094	2	-1.50196e-05	4.75415e-07
2	0	0	1	1	398.182	-0.183836	-0.184063	-0.00273343	2	-1.5056e-05	5.03123e-07
2	0	0	1	1	398.195	-0.187134	-0.187351	-0.00284213	2	-1.50934e-05	5.32474e-07
2	0	0	0	1	398.209	-0.190483	-0.190693	-0.00295496	2	-1.51328e-05	5.6349e-07
2	0	0	1	1	398.222	-0.193832	-0.19404	-0.00306998	2	-1.51737e-05	5.957e-07
2	0	0	1	1	398.235	-0.197131	-0.197337	-0.00319265	2	-1.52156e-05	6.30027e-07
2	0	0	0	1	398.249	-0.200479	-0.200676	-0.00331276	2	-1.52598e-05	6.64793e-07
2	0	0	1	1	398.262	-0.203828	-0.204045	-0.0034521	2	-1.53057e-05	7.04384e-07
2	0	0	1	1	398.275	-0.207127	-0.207319	-0.00357714	2	-1.53526e-05	7.41608e-07
2	0	0	0	1	398.289	-0.210476	-0.210694	-0.00371855	2	-1.54021e-05	7.83476e-07
2	0	0	1	1	398.302	-0.213824	-0.214054	-0.00385646	2	-1.54534e-05	8.25493e-07
2	0	0	1	1	398.315	-0.217129	-0.217362	-0.0039895	2	-1.55057e-05	8.67166e-07
2	0	0	0	1	398.329	-0.220488	-0.220694	-0.00411961	2	-1.55606e-05	9.09176e-07
2	0	0	0	1	398.342	-0.223787	-0.224021	-0.00425108	2	-1.56164e-05	9.5233e-07
2	0	0	1	1	398.355	-0.227136	-0.227378	-0.00438484	2	-1.56749e-05	9.97016e-07
2	0	0	0	1	398.369	-0.230485	-0.2307	-0.00450636	2	-1.5735e-05	1.03962e-06
2	0	0	0	1	398.382	-0.233783	-0.233999	-0.00463381	2	-1.57959e-05	1.08431e-06
2	0	0	1	1	398.395	-0.237132	-0.237354	-0.00475165	2	-1.58594e-05	1.12782e-06
2	0	0	0	1	398.409	-0.240481	-0.240675	-0.00486296	2	-1.59243e-05	1.17039e-06
2	0	0	0	1	398.422	-0.24378	-0.244007	-0.0049745	2	-1.59898e-05	1.21381e-06
2	0	0	1	1	398.435	-0.247128	-0.247356	-0.00507133	2	-1.60577e-05	1.25442e-06
2	0	0	0	1	398.449	-0.250477	-0.2507	-0.0051444	2	-1.61267e-05	1.2897e-06
2	0	0	0	1	398.462	-0.253776	-0.253992	-0.00521472	2	-1.61956e-05	1.3245e-06
2	0	0	1	1	398.475	-0.257124	-0.257329	-0.00529226	2	-1.62665e-05	1.36185e-06
2	0	0	0	1	398.489	-0.260451	-0.26065	-0.00535547	2	-1.63378e-05	1.3959e-06
2	0	0	0	1	398.502	-0.263789	-0.264004	-0.00540763	2	-1.641e-05	1.42764e-06
2	0	0	1	1	398.515	-0.267137	-0.267349	-0.0054429	2	-1.64832e-05	1.45515e-06
2	0	0	1	1	398.529	-0.270436	-0.270637	-0.00546775	2	-1.65558e-05	1.47977e-06
2	0	0	0	1	398.542	-0.273785	-0.273978	-0.00548231	2	-1.66297e-05	1.50203e-06
2	0	0	1	1	398.555	-0.277133	-0.277317	-0.00548903	2	-1.67037e-05	1.5222e-06
2	0	0	1	1	398.569	-0.280432	-0.280627	-0.00549623	2	-1.67767e-05	1.54239e-06
2	0	0	0	1	398.582	-0.283781	-0.283974	-0.00549896	2	-1.68508e-05	1.56156e-06
2	0	0	1	1	398.595	-0.28713	-0.287329	-0.00548128	2	-1.69249e-05	1.57493e-06
2	0	0	1	1	398.609	-0.290428	-0.290611	-0.00546467	2	-1.69977e-05	1.58809e-06
2	0	0	0	1	398.622	-0.293777	-0.293953	-0.00543072	2	-1.70712e-05	1.59638e-06
2	0	0	1	1	398.635	-0.297126	-0.297335	-0.00541981	2	-1.71444e-05	1.6115e-06
2	0	0	1	1	398.649	-0.300425	-0.30064	-0.00538482	2	-1.72162e-05	1.61889e-06
2	0	0	0	1	398.662	-0.303773	-0.303995	-0.00534173	2	-1.72886e-05	1.62386e-06
2	0	0	0	1	398.675	-0.307089	-0.307307	-0.00531484	2	-1.73595e-05	1.63329e-06
2	0	0	1	1	398.689	-0.310437	-0.310653	-0.00527915	2	-1.7431e-05	1.63999e-06
2	0	0	0	1	398.702	-0.313786	-0.314027	-0.00523727	2	-1.75019e-05	1.64464e-06
2	0	0	0	1	398.715	-0.317085	-0.317314	-0.00520956	2	-1.75714e-05	1.65307e-06
2	0	0	1	1	398.729	-0.320434	-0.320624	-0.00515619	2	-1.76414e-05	1.6532e-06
2	0	0	0	1	398.742	-0.323782	-0.323978	-0.0051288	2	-1.77108e-05	1.66162e-06
2	0	0	0	1	398.755	-0.327081	-0.327283	-0.00509523	2	-1.77788e-05	1.66758e-06
2	0	0	1	1	398.769	-0.33043	-0.330649	-0.00505514	2	-1.78473e-05	1.67148e-06
2	0	0	0	1	398.782	-0.333778	-0.333995	-0.00502462	2	-1.79154e-05	1.6782e-06
2	0	0	0	1	398.795	-0.337077	-0.337296	-0.00499517	2	-1.7982e-05	1.68485e-06
2	0	0	1	1	398.809	-0.340426	-0.340673	-0.00496711	2	-1.80493e-05	1.69216e-06
2	0	0	0	1	398.822	-0.343775	-0.344026	-0.00492583	2	-1.81161e-05	1.69461e-06
2	0	0	0	1	398.835	-0.347073	-0.347322	-0.00490403	2	-1.81814e-05	1.70328e-06
2	0	0	1	1	398.849	-0.350433	-0.350679	-0.00489052	2	-1.82476e-05	1.715e-06
2	0	0	1	1	398.862	-0.353738	-0.353979	-0.00486576	2	-1.83125e-05	1.72238e-06
2	0	0	0	1	398.875	-0.357086	-0.35733	-0.00484023	2	-1.83781e-05	1.72956e-06
2	0	0	1	1	398.889	-0.360435	-0.360671	-0.00481931	2	-1.84433e-05	1.73818e-06
2	0	0	1	1	398.902	-0.363734	-0.363969	-0.00479463	2	-1.85073e-05	1.7451e-06
2	0	0	0	1	398.915	-0.367083	-0.367298	-0.00478739	2	-1.8572e-05	1.7584e-06
2	0	0	1	1	398.929	-0.370431	-0.370658	-0.00477581	2	-1.86366e-05	1.77019e-06
2	0	0	1	1	398.942	-0.37373	-0.37395	-0.00476261	2	-1.87001e-05	1.78098e-06
2	0	0	0	1	398.955	-0.377079	-0.377322	-0.00474812	2	-1.87643e-05	1.79157e-06
2	0	0	1	1	398.969	-0.380427	-0.380648	-0.00473785	2	-1.88284e-05	1.80345e-06
2	0	0	1	1	398.982	-0.383726	-0.383984	-0.00473676	2	-1.88914e-05	1.81884e-06
2	0	0	0	1	398.995	-0.387075	-0.387307	-0.00471559	2	-1.89553e-05	1.82638e-06
2	0	0	1	1	399.009	-0.390424	-0.390671	-0.00472086	2	-1.90191e-05	1.8443e-06
2	0	0	1	1	399.022	-0.393734	-0.393981	-0.00471632	2	-1.90819e-05	1.85814e-06
2	0	0	0	1	399.035	-0.397088	-0.39735	-0.00471332	2	-1.91456e-05	1.87284e-06
2	0	0	0	1	399.048	-0.400387	-0.400634	-0.00470614	2	-1.92083e-05	1.88544e-06
2	0	0	1	1	399.062	-0.403735	-0.403971	-0.00470969	2	-1.92719e-05	1.90258e-06
2	0	0	0	1	399.075	-0.407084	-0.407328	-0.00471232	2	-1.93355e-05	1.91946e-06
2	0	0	0	1	399.088	-0.410383	-0.410616	-0.00470479	2	-1.93981e-05	1.93186e-06
2	0	0	1	1	399.102	-0.413731	-0.413968	-0.00470904	2	-1.94617e-05	1.9494e-06
2	0	0	0	1	399.115	-0.41708	-0.41734	-0.00471897	2	-1.95254e-05	1.96942e-06
2	0	0	0	1	399.128	-0.420379	-0.420623	-0.00472035	2	-1.95882e-05	1.98549e-06
2	0	0	1	1	399.142	-0.423728	-0.423978	-0.00471766	2	-1.9652e-05	2.00018e-06
2	0	0	0	1	399.155	-0.427076	-0.42729	-0.0047228	2	-1.97157e-05	2.01801e-06
2	0	0	0	1	399.168	-0.430375	-0.430587	-0.00473609	2	-1.97787e-05	2.0393e-06
2	0	0	1	1	399.182	-0.433724	-0.433939	-0.00473696	2	-1.98427e-05	2.05555e-06
2	0	0	0	1	399.195	-0.437056	-0.437296	-0.00474639	2	-1.99062e-05	2.07558e-06
2	0	0	0	1	399.208	-0.440388	-0.440614	-0.00475366	2	-1.997e-05	2.09453e-06
2	0	0	1	1	399.222	-0.443737	-0.443962	-0.00476848	2	-2.00343e-05	2.11702e-06
2	0	0	1	1	399.235	-0.447035	-0.447257	-0.00477995	2	-2.00978e-05	2.13787e-06
2	0	0	0	1	399.248	-0.450384	-0.450594	-0.00478125	2	-2.01624e-05	2.1544e-06
2	0	0	1	1	399.262	-0.453733	-0.453925	-0.00479923	2	-2.02271e-05	2.17849e-06
2	0	0	1	1	399.275	-0.457032	-0.457243	-0.00480462	2	-2.0291e-05	2.19688e-06
2	0	0	0	1	399.288	-0.46038	-0.460581	-0.00482331	2	-2.0356e-05	2.22152e-06
2	0	0	1	1	399.302	-0.463729	-0.463914	-0.0048324	2	-2.04212e-05	2.24182e-06
2	0	0	1	1	399.315	-0.467028	-0.467246	-0.00485551	2	-2.04857e-05	2.26872e-06
2	0	0	0	1	399.328	-0.470376	-0.470609	-0.00486537	2	-2.05514e-05	2.28969e-06
2	0	0	1	1	399.342	-0.473725	-0.47394	-0.0048749	2	-2.06171e-05	2.31041e-06
2	0	0	1	1	399.355	-0.477024	-0.477256	-0.00490147	2	-2.06822e-05	2.33926e-06
2	0	0	0	1	399.368	-0.480378	-0.48062	-0.00491972	2	-2.07485e-05	2.36452e-06
2	0	0	0	1	399.382	-0.483688	-0.483914	-0.00493883	2	-2.08141e-05	2.38997e-06
2	0	0	1	1	399.395	-0.487037	-0.487273	-0.0049505	2	-2.08809e-05	2.41224e-06
2	0	0	0	1	399.408	-0.490385	-0.490611	-0.0049672	2	-2.09479e-05	2.43696e-06
2	0	0	0	1	399.422	-0.493684	-0.49391	-0.00499285	2	-2.10141e-05	2.46602e-06
2	0	0	1	1	399.435	-0.497033	-0.497253	-0.00501545	2	-2.10817e-05	2.49395e-06
2	0	0	0	1	399.448	-0.500382	-0.500613	-0.00503608	2	-2.11496e-05	2.52113e-06
2	0	0	0	1	399.462	-0.50368	-0.503907	-0.00505613	2	-2.12168e-05	2.54782e-06
2	0	0	1	1	399.475	-0.507029	-0.507254	-0.00507946	2	-2.12852e-05	2.57657e-06
2	0	0	0	1	399.488	-0.510378	-0.510613	-0.00510236	2	-2.13539e-05	2.60533e-06
2	0	0	0	1	399.502	-0.513677	-0.513917	-0.00513184	2	-2.1422e-05	2.63734e-06
2	0	0	1	1	399.515	-0.517025	-0.517242	-0.00515647	2	-2.14915e-05	2.66715e-06
2	0	0	0	1	399.528	-0.520374	-0.520587	-0.00518894	2	-2.15614e-05	2.70129e-06
2	0	0	0	1	399.542	-0.523678	-0.523922	-0.00521521	2	-2.16306e-05	2.73236e-06
2	0	0	1	1	399.555	-0.527038	-0.527268	-0.00524721	2	-2.17012e-05	2.76669e-06
2	0	0	1	1	399.568	-0.530337	-0.530551	-0.0052716	2	-2.17712e-05	2.79685e-06
2	0	0	0	1	399.582	-0.533686	-0.533892	-0.00530932	2	-2.18426e-05	2.8346e-06
2	0	0	1	1	399.595	-0.537034	-0.537253	-0.0053458	2	-2.19145e-05	2.87204e-06
2	0	0	1	1	399.608	-0.540333	-0.540537	-0.00538181	2	-2.19859e-05	2.90907e-06
2	0	0	0	1	399.622	-0.543682	-0.543935	-0.00541707	2	-2.20588e-05	2.94653e-06
2	0	0	1	1	399.635	-0.547031	-0.547269	-0.00545365	2	-2.21321e-05	2.98461e-06
2	0	0	1	1	399.648	-0.550329	-0.550553	-0.00549492	2	-2.22049e-05	3.02525e-06
2	0	0	0	1	399.662	-0.553678	-0.553928	-0.00554662	2	-2.22795e-05	3.07243e-06
2	0	0	1	1	399.675	-0.557027	-0.557274	-0.00558729	2	-2.23546e-05	3.11365e-06
2	0	0	1	1	399.688	-0.560326	-0.560557	-0.00562888	2	-2.24291e-05	3.15531e-06
2	0	0	0	1	399.702	-0.563674	-0.563919	-0.00568774	2	-2.25055e-05	3.20743e-06
2	0	0	1	1	399.715	-0.567001	-0.567249	-0.00573229	2	-2.2582e-05	3.25164e-06
2	0	0	1	1	399.728	-0.570338	-0.570589	-0.00578971	2	-2.26591e-05	3.30354e-06
2	0	0	0	1	399.742	-0.573687	-0.573939	-0.00584436	2	-2.27376e-05	3.3543e-06
2	0	0	0	1	399.755	-0.576986	-0.577249	-0.00589879	2	-2.28157e-05	3.40507e-06
2	0	0	1	1	399.768	-0.580335	-0.580572	-0.00595858	2	-2.28956e-05	3.45939e-06
2	0	0	0	1	399.782	-0.583683	-0.583931	-0.00602095	2	-2.29764e-05	3.51582e-06
2	0	0	0	1	399.795	-0.586982	-0.587233	-0.00608344	2	-2.30569e-05	3.57239e-06
2	0	0	1	1	399.808	-0.590331	-0.590587	-0.00614909	2	-2.31394e-05	3.63157e-06
2	0	0	0	1	399.822	-0.593679	-0.593937	-0.00622502	2	-2.32228e-05	3.69727e-06
2	0	0	0	1	399.835	-0.596978	-0.597207	-0.00628904	2	-2.33059e-05	3.75586e-06
2	0	0	1	1	399.843	-0.599148	-0.599382	-0.00631698	2	-2.33611e-05	3.78628e-06
2	0	0	1	1	399.846	-0.599827	-0.600062	-0.00635809	2	-2.33783e-05	3.81524e-06