File: TAP_Report/Data/MB_PB/100 uM MB 10mM PB  second ito_03_CV_C01_2.mpt
EC-Lab ASCII FILE
Nb header lines : 53

Cyclic Voltammetry

Run on channel : 1 (SN 0696)
User :
Electrode connection : standard
Ewe ctrl range : min = -10.00 V, max = 10.00 V
Ewe,I filtering : 50 kHz
Channel : Grounded
Acquisition started on : 05/17/2017 12:39:23
Saved on :
	File : 100 uM MB 10mM PB  second ito_03_CV_C01.mpr
	Directory : \\userfs\st659\w2k\EC-Lab\Data\ITO Characterisation 17-5-17\
	Host : 144.32.136.43
Device : SP-300 (SN 0182)
Address : USB
EC-Lab for windows v10.44 (software)
Internet server v10.44 (firmware)
Command interpretor v10.44 (firmware)
Electrode material :
Initial state :
Electrolyte :
Comments :
Cable : standard
Electrode surface area : 0.001 cm²
Characteristic mass : 0.001 g
Equivalent Weight : 0.000 g/eq.
Density : 0.000 g/cm3
Ei (V)              0.000
vs.                 Eoc
dE/dt               100.000
dE/dt unit          mV/s
E1 (V)              0.100
vs.                 Ref
Step percent        50
N                   10
E range min (V)     -10.000
E range max (V)     10.000
I Range             Auto
I Range min         Unset
I Range max         Unset
I Range init        Unset
Bandwidth           8
E2 (V)              -0.600
vs.                 Ref
nc cycles           2
Reverse Scan        1
Ef (V)              0.000
vs.                 Eoc

mode	ox/red	error	control changes	counter inc.	time/s	control/V	Ewe/V	<I>/mA	cycle number	(Q-Qo)/C	P/W
2	1	0	0	1	351.642	-0.60016	-0.600375	-0.00560554	2	-2.37554e-05	3.36543e-06
2	1	0	1	1	351.66	-0.598321	-0.598532	-0.00512739	2	-2.385e-05	3.06891e-06
2	1	0	1	1	351.694	-0.595	-0.595221	-0.00489684	2	-2.40148e-05	2.9147e-06
2	1	0	0	1	351.727	-0.591657	-0.591875	-0.00474589	2	-2.41745e-05	2.80897e-06
2	1	0	0	1	351.76	-0.588338	-0.588566	-0.0046149	2	-2.43285e-05	2.71617e-06
2	1	0	1	1	351.794	-0.584999	-0.58521	-0.00449478	2	-2.44793e-05	2.63039e-06
2	1	0	0	1	351.827	-0.581661	-0.581859	-0.00438557	2	-2.46263e-05	2.55178e-06
2	1	0	0	1	351.86	-0.578342	-0.578565	-0.00428269	2	-2.47688e-05	2.47781e-06
2	1	0	1	1	351.894	-0.574997	-0.575211	-0.0041892	2	-2.4909e-05	2.40967e-06
2	1	0	1	1	351.927	-0.571678	-0.5719	-0.00409846	2	-2.50452e-05	2.34391e-06
2	1	0	0	1	351.96	-0.568339	-0.568579	-0.00401365	2	-2.51794e-05	2.28208e-06
2	1	0	1	1	351.994	-0.565	-0.565237	-0.00393179	2	-2.53107e-05	2.22239e-06
2	1	0	1	1	352.027	-0.561682	-0.561902	-0.00385429	2	-2.54387e-05	2.16573e-06
2	1	0	0	1	352.06	-0.558339	-0.558562	-0.00378038	2	-2.55649e-05	2.11158e-06
2	1	0	0	1	352.093	-0.555018	-0.555244	-0.00371406	2	-2.5688e-05	2.06221e-06
2	1	0	1	1	352.127	-0.551679	-0.551883	-0.00364268	2	-2.58096e-05	2.01034e-06
2	1	0	0	1	352.16	-0.54834	-0.548545	-0.00358503	2	-2.5929e-05	1.96655e-06
2	1	0	0	1	352.193	-0.545021	-0.545226	-0.00352049	2	-2.60457e-05	1.91946e-06
2	1	0	1	1	352.227	-0.541678	-0.54188	-0.00346006	2	-2.6161e-05	1.87494e-06
2	1	0	1	1	352.26	-0.538357	-0.538574	-0.00340705	2	-2.62737e-05	1.83495e-06
2	1	0	0	1	352.293	-0.535018	-0.53521	-0.00335037	2	-2.63852e-05	1.79315e-06
2	1	0	1	1	352.327	-0.53168	-0.531895	-0.00329848	2	-2.6495e-05	1.75445e-06
2	1	0	1	1	352.36	-0.528361	-0.528557	-0.00324746	2	-2.66024e-05	1.71647e-06
2	1	0	0	1	352.393	-0.52502	-0.525243	-0.00319993	2	-2.67088e-05	1.68074e-06
2	1	0	0	1	352.427	-0.521697	-0.521903	-0.00315055	2	-2.68129e-05	1.64428e-06
2	1	0	1	1	352.46	-0.518358	-0.518557	-0.00310286	2	-2.69161e-05	1.60901e-06
2	1	0	0	1	352.493	-0.515019	-0.515226	-0.00305899	2	-2.70177e-05	1.57607e-06
2	1	0	0	1	352.527	-0.511701	-0.511922	-0.00301671	2	-2.71173e-05	1.54432e-06
2	1	0	1	1	352.56	-0.508362	-0.508587	-0.00297394	2	-2.72161e-05	1.51251e-06
2	1	0	1	1	352.593	-0.505037	-0.505247	-0.00293303	2	-2.73129e-05	1.4819e-06
2	1	0	0	1	352.627	-0.501698	-0.501906	-0.00289268	2	-2.74089e-05	1.45185e-06
2	1	0	1	1	352.66	-0.498359	-0.498551	-0.00285338	2	-2.75036e-05	1.42255e-06
2	1	0	1	1	352.693	-0.49504	-0.49524	-0.0028163	2	-2.75965e-05	1.39475e-06
2	1	0	0	1	352.727	-0.491702	-0.491902	-0.00277981	2	-2.76887e-05	1.36739e-06
2	1	0	1	1	352.76	-0.488367	-0.488601	-0.00274434	2	-2.77794e-05	1.34089e-06
2	1	0	1	1	352.793	-0.485038	-0.485244	-0.00270671	2	-2.78689e-05	1.31342e-06
2	1	0	0	1	352.827	-0.481699	-0.481914	-0.00267149	2	-2.79575e-05	1.28743e-06
2	1	0	0	1	352.86	-0.47838	-0.478587	-0.00263827	2	-2.80444e-05	1.26264e-06
2	1	0	1	1	352.893	-0.475041	-0.475243	-0.00260521	2	-2.81306e-05	1.23811e-06
2	1	0	0	1	352.926	-0.471709	-0.47192	-0.00257259	2	-2.82156e-05	1.21406e-06
2	1	0	0	1	352.96	-0.468377	-0.468586	-0.00254019	2	-2.82995e-05	1.1903e-06
2	1	0	1	1	352.993	-0.465039	-0.465212	-0.00250601	2	-2.83825e-05	1.16583e-06
2	1	0	1	1	353.026	-0.46172	-0.461908	-0.00247697	2	-2.8464e-05	1.14413e-06
2	1	0	0	1	353.06	-0.458381	-0.458569	-0.00244685	2	-2.8545e-05	1.12205e-06
2	1	0	1	1	353.093	-0.455051	-0.455222	-0.00241511	2	-2.86247e-05	1.09941e-06
2	1	0	1	1	353.126	-0.451717	-0.451893	-0.00238834	2	-2.87035e-05	1.07927e-06
2	1	0	0	1	353.16	-0.448378	-0.448564	-0.00235943	2	-2.87816e-05	1.05835e-06
2	1	0	0	1	353.193	-0.445059	-0.445274	-0.00233175	2	-2.88582e-05	1.03827e-06
2	1	0	1	1	353.226	-0.441721	-0.441915	-0.00230267	2	-2.89344e-05	1.01759e-06
2	1	0	0	1	353.26	-0.438391	-0.438605	-0.00227509	2	-2.90094e-05	9.97867e-07
2	1	0	0	1	353.293	-0.435057	-0.435253	-0.00224766	2	-2.90835e-05	9.78301e-07
2	1	0	1	1	353.326	-0.431718	-0.431916	-0.00222151	2	-2.91569e-05	9.59507e-07
2	1	0	1	1	353.36	-0.428399	-0.428596	-0.00219451	2	-2.92289e-05	9.40559e-07
2	1	0	0	1	353.393	-0.42506	-0.425278	-0.00217046	2	-2.93006e-05	9.23049e-07
2	1	0	1	1	353.426	-0.421722	-0.421946	-0.00214136	2	-2.93714e-05	9.03538e-07
2	1	0	1	1	353.46	-0.418396	-0.418625	-0.00211598	2	-2.94408e-05	8.85801e-07
2	1	0	0	1	353.493	-0.415058	-0.41527	-0.00209138	2	-2.95098e-05	8.68486e-07
2	1	0	0	1	353.526	-0.411739	-0.411935	-0.00206595	2	-2.95776e-05	8.51039e-07
2	1	0	1	1	353.56	-0.4084	-0.408614	-0.00204042	2	-2.96449e-05	8.33745e-07
2	1	0	0	1	353.593	-0.405061	-0.405255	-0.00201626	2	-2.97114e-05	8.17098e-07
2	1	0	0	1	353.626	-0.401738	-0.401963	-0.00199014	2	-2.97766e-05	7.99965e-07
2	1	0	1	1	353.66	-0.398397	-0.398624	-0.00196702	2	-2.98414e-05	7.841e-07
2	1	0	1	1	353.693	-0.395079	-0.395311	-0.00194302	2	-2.99051e-05	7.68099e-07
2	1	0	0	1	353.726	-0.39174	-0.391973	-0.00191743	2	-2.99683e-05	7.5158e-07
2	1	0	1	1	353.76	-0.388401	-0.388621	-0.00189511	2	-3.00307e-05	7.36481e-07
2	1	0	1	1	353.793	-0.38508	-0.385314	-0.00187177	2	-3.0092e-05	7.2122e-07
2	1	0	0	1	353.826	-0.381737	-0.381949	-0.00184705	2	-3.01529e-05	7.05478e-07
2	1	0	0	1	353.859	-0.378418	-0.378632	-0.00182394	2	-3.02126e-05	6.90603e-07
2	1	0	1	1	353.893	-0.375079	-0.375279	-0.0018014	2	-3.02719e-05	6.76026e-07
2	1	0	0	1	353.926	-0.371741	-0.371943	-0.00177775	2	-3.03304e-05	6.61221e-07
2	1	0	0	1	353.959	-0.368422	-0.368619	-0.00175488	2	-3.03878e-05	6.46883e-07
2	1	0	1	1	353.993	-0.365077	-0.36527	-0.0017317	2	-3.04448e-05	6.32537e-07
2	1	0	1	1	354.026	-0.361758	-0.361966	-0.00170929	2	-3.05007e-05	6.18706e-07
2	1	0	0	1	354.059	-0.358419	-0.358636	-0.00168644	2	-3.05562e-05	6.04819e-07
2	1	0	1	1	354.093	-0.35508	-0.355303	-0.00166502	2	-3.06109e-05	5.91588e-07
2	1	0	1	1	354.126	-0.351762	-0.351983	-0.00164275	2	-3.06646e-05	5.7822e-07
2	1	0	0	1	354.159	-0.348416	-0.348621	-0.00161761	2	-3.07178e-05	5.63933e-07
2	1	0	0	1	354.193	-0.345098	-0.345311	-0.0015974	2	-3.07699e-05	5.516e-07
2	1	0	1	1	354.226	-0.341759	-0.341978	-0.00157404	2	-3.08216e-05	5.38288e-07
2	1	0	0	1	354.259	-0.33842	-0.338611	-0.00154923	2	-3.08726e-05	5.24587e-07
2	1	0	0	1	354.293	-0.335101	-0.335275	-0.00152843	2	-3.09224e-05	5.12445e-07
2	1	0	1	1	354.326	-0.331758	-0.331938	-0.00150412	2	-3.09719e-05	4.99274e-07
2	1	0	1	1	354.359	-0.328437	-0.328619	-0.00148132	2	-3.10202e-05	4.86791e-07
2	1	0	0	1	354.393	-0.325099	-0.325265	-0.00145824	2	-3.10681e-05	4.74313e-07
2	1	0	1	1	354.426	-0.32176	-0.32193	-0.00143518	2	-3.11152e-05	4.62028e-07
2	1	0	1	1	354.459	-0.318441	-0.318625	-0.00141303	2	-3.11612e-05	4.50226e-07
2	1	0	0	1	354.493	-0.3151	-0.315289	-0.00138784	2	-3.12068e-05	4.3757e-07
2	1	0	0	1	354.526	-0.311777	-0.311976	-0.00136469	2	-3.12513e-05	4.25752e-07
2	1	0	1	1	354.559	-0.308438	-0.308627	-0.0013389	2	-3.12952e-05	4.1322e-07
2	1	0	0	1	354.593	-0.305099	-0.305281	-0.00131347	2	-3.13383e-05	4.00978e-07
2	1	0	0	1	354.626	-0.301781	-0.301954	-0.00129004	2	-3.13803e-05	3.89533e-07
2	1	0	1	1	354.659	-0.298442	-0.298623	-0.00126272	2	-3.14217e-05	3.77078e-07
2	1	0	1	1	354.692	-0.295117	-0.295281	-0.00123482	2	-3.14619e-05	3.6462e-07
2	1	0	0	1	354.726	-0.291778	-0.291926	-0.00120853	2	-3.15015e-05	3.52802e-07
2	1	0	1	1	354.759	-0.288439	-0.288583	-0.00118076	2	-3.15401e-05	3.40748e-07
2	1	0	1	1	354.792	-0.28512	-0.285276	-0.00115116	2	-3.15776e-05	3.28399e-07
2	1	0	0	1	354.826	-0.281782	-0.281927	-0.00112225	2	-3.16143e-05	3.16391e-07
2	1	0	1	1	354.859	-0.278447	-0.278609	-0.0010909	2	-3.165e-05	3.03935e-07
2	1	0	1	1	354.892	-0.275118	-0.275288	-0.00106107	2	-3.16846e-05	2.921e-07
2	1	0	0	1	354.926	-0.271779	-0.271936	-0.00102744	2	-3.17182e-05	2.79399e-07
2	1	0	0	1	354.959	-0.26846	-0.268612	-0.000992906	2	-3.17505e-05	2.66706e-07
2	1	0	1	1	354.992	-0.265121	-0.265276	-0.000956942	2	-3.17818e-05	2.53854e-07
2	1	0	0	1	355.026	-0.261789	-0.261923	-0.000918949	2	-3.18118e-05	2.40694e-07
2	1	0	0	1	355.059	-0.258457	-0.258607	-0.000881748	2	-3.18406e-05	2.28026e-07
2	1	0	1	1	355.092	-0.255119	-0.255285	-0.000842738	2	-3.18681e-05	2.15138e-07
2	1	0	1	1	355.126	-0.2518	-0.25197	-0.000799102	2	-3.18941e-05	2.0135e-07
2	1	0	0	1	355.159	-0.248461	-0.248644	-0.000755044	2	-3.19188e-05	1.87737e-07
2	1	0	1	1	355.192	-0.245129	-0.245299	-0.000706824	2	-3.19419e-05	1.73383e-07
2	1	0	1	1	355.226	-0.241797	-0.241958	-0.000656166	2	-3.19634e-05	1.58764e-07
2	1	0	0	1	355.259	-0.238458	-0.238613	-0.000606606	2	-3.19832e-05	1.44744e-07
2	1	0	0	1	355.292	-0.235139	-0.235309	-0.000551804	2	-3.20012e-05	1.29845e-07
2	1	0	1	1	355.326	-0.231801	-0.231998	-0.000496058	2	-3.20174e-05	1.15084e-07
2	1	0	0	1	355.359	-0.228471	-0.228641	-0.000434927	2	-3.20316e-05	9.9442e-08
2	1	0	0	1	355.392	-0.225137	-0.225322	-0.000371584	2	-3.20438e-05	8.37263e-08
2	1	0	1	1	355.441	-0.220298	-0.220413	-0.000257665	2	-3.20584e-05	5.67925e-08
2	1	0	1	1	355.489	-0.21548	-0.215608	-0.000147642	2	-3.20696e-05	3.18328e-08
2	1	0	0	1	355.522	-0.212142	-0.212283	-7.05379e-05	2	-3.20728e-05	1.4974e-08
2	1	0	1	1	355.555	-0.208807	-0.208902	1.21677e-05	2	-3.20733e-05	2.54186e-09
2	1	0	1	1	355.589	-0.205477	-0.205587	8.93638e-05	2	-3.20711e-05	1.8372e-08
2	1	0	0	1	355.622	-0.202139	-0.202244	0.000173428	2	-3.20663e-05	3.50747e-08
2	1	0	0	1	355.655	-0.19882	-0.198918	0.000261238	2	-3.20586e-05	5.19649e-08
2	1	0	1	1	355.689	-0.195481	-0.195594	0.000345915	2	-3.2048e-05	6.76588e-08
2	1	0	0	1	355.722	-0.192149	-0.192249	0.000435043	2	-3.20346e-05	8.36367e-08
2	1	0	0	1	355.755	-0.188817	-0.188921	0.000517768	2	-3.20182e-05	9.78171e-08
2	1	0	1	1	355.789	-0.185478	-0.185606	0.000604577	2	-3.1999e-05	1.12213e-07
2	1	0	1	1	355.822	-0.18216	-0.182267	0.000687241	2	-3.19771e-05	1.25261e-07
2	1	0	0	1	355.855	-0.178821	-0.178912	0.000766549	2	-3.19524e-05	1.37145e-07
2	1	0	1	1	355.889	-0.175491	-0.175565	0.000836203	2	-3.19253e-05	1.46808e-07
2	1	0	1	1	355.922	-0.172157	-0.172229	0.000904408	2	-3.18958e-05	1.55765e-07
2	1	0	0	1	355.955	-0.168818	-0.168896	0.000960704	2	-3.18643e-05	1.62259e-07
2	1	0	0	1	356.005	-0.16383	-0.163938	0.00101775	2	-3.18132e-05	1.66848e-07
2	1	0	0	1	356.055	-0.158822	-0.158941	0.00107029	2	-3.17596e-05	1.70112e-07
2	1	0	0	1	356.089	-0.155497	-0.155591	0.00110141	2	-3.17223e-05	1.7137e-07
2	1	0	1	1	356.122	-0.152158	-0.152284	0.00111807	2	-3.16839e-05	1.70265e-07
2	1	0	1	1	356.155	-0.148839	-0.148956	0.00113182	2	-3.16454e-05	1.68592e-07
2	1	0	0	1	356.189	-0.1455	-0.145627	0.00113682	2	-3.16062e-05	1.65552e-07
2	1	0	1	1	356.222	-0.142162	-0.142273	0.00113372	2	-3.15671e-05	1.61299e-07
2	1	0	1	1	356.255	-0.138836	-0.138965	0.00113243	2	-3.15283e-05	1.57369e-07
2	1	0	0	1	356.289	-0.135497	-0.13559	0.00112196	2	-3.14894e-05	1.52127e-07
2	1	0	0	1	356.322	-0.132179	-0.132285	0.00110616	2	-3.14512e-05	1.46329e-07
2	1	0	1	1	356.355	-0.12884	-0.128956	0.00109072	2	-3.14133e-05	1.40655e-07
2	1	0	0	1	356.389	-0.125501	-0.1256	0.00107286	2	-3.1376e-05	1.34751e-07
2	1	0	0	1	356.422	-0.122178	-0.122272	0.00105238	2	-3.13395e-05	1.28677e-07
2	1	0	1	1	356.455	-0.118837	-0.118934	0.00102439	2	-3.13037e-05	1.21834e-07
2	1	0	1	1	356.488	-0.115518	-0.115597	0.00100575	2	-3.12688e-05	1.16261e-07
2	1	0	0	1	356.522	-0.11218	-0.11227	0.000976752	2	-3.12345e-05	1.0966e-07
2	1	0	1	1	356.555	-0.108841	-0.108933	0.00095516	2	-3.1201e-05	1.04048e-07
2	1	0	1	1	356.588	-0.10552	-0.105597	0.000932584	2	-3.11685e-05	9.84785e-08
2	1	0	0	1	356.622	-0.102177	-0.102278	0.000910785	2	-3.11365e-05	9.31535e-08
2	1	0	0	1	356.655	-0.0988581	-0.0989614	0.000888147	2	-3.11054e-05	8.78922e-08
2	1	0	1	1	356.688	-0.0955194	-0.0956335	0.000867674	2	-3.10749e-05	8.29787e-08
2	1	0	0	1	356.722	-0.0921806	-0.0922697	0.000850502	2	-3.1045e-05	7.84755e-08
2	1	0	0	1	356.755	-0.0888619	-0.0889737	0.000829674	2	-3.10159e-05	7.38192e-08
2	1	0	1	1	356.788	-0.0855165	-0.0856387	0.00081642	2	-3.09872e-05	6.99172e-08
2	1	0	1	1	356.822	-0.0821978	-0.0823296	0.000800136	2	-3.09593e-05	6.58748e-08
2	1	0	0	1	356.855	-0.0788591	-0.0789941	0.000784186	2	-3.09316e-05	6.19461e-08
2	1	0	1	1	356.888	-0.0755203	-0.0756511	0.00077037	2	-3.09044e-05	5.82793e-08
2	1	0	1	1	356.922	-0.0722016	-0.0723207	0.000759827	2	-3.08778e-05	5.49512e-08
2	1	0	0	1	356.955	-0.0688584	-0.0689714	0.00074646	2	-3.08514e-05	5.14844e-08
2	1	0	0	1	356.988	-0.0655375	-0.0656686	0.000734559	2	-3.08256e-05	4.82375e-08
2	1	0	1	1	357.022	-0.0621987	-0.0623105	0.000724558	2	-3.08001e-05	4.51476e-08
2	1	0	0	1	357.055	-0.05886	-0.0589987	0.000715856	2	-3.07748e-05	4.22346e-08
2	1	0	0	1	357.088	-0.0555413	-0.0556792	0.000706687	2	-3.075e-05	3.93477e-08
2	1	0	1	1	357.122	-0.0521981	-0.0523234	0.000699506	2	-3.07253e-05	3.66005e-08
2	1	0	1	1	357.155	-0.0488772	-0.0490007	0.000692612	2	-3.0701e-05	3.39385e-08
2	1	0	0	1	357.188	-0.0455384	-0.0456719	0.000685641	2	-3.06768e-05	3.13145e-08
2	1	0	1	1	357.222	-0.0421997	-0.0423291	0.000678767	2	-3.06528e-05	2.87316e-08
2	1	0	1	1	357.255	-0.038881	-0.0389864	0.000675798	2	-3.06291e-05	2.63469e-08
2	1	0	0	1	357.288	-0.03554	-0.0356399	0.000667914	2	-3.06055e-05	2.38044e-08
2	1	0	0	1	357.321	-0.0322168	-0.032326	0.000664841	2	-3.05821e-05	2.14917e-08
2	1	0	1	1	357.355	-0.0288781	-0.0289823	0.000660506	2	-3.05588e-05	1.9143e-08
2	1	0	0	1	357.388	-0.0255394	-0.025645	0.000658441	2	-3.05356e-05	1.68857e-08
2	1	0	0	1	357.421	-0.0222206	-0.0223147	0.000655769	2	-3.05126e-05	1.46333e-08
2	1	0	1	1	357.455	-0.0188819	-0.0189991	0.000651786	2	-3.04896e-05	1.23834e-08
2	1	0	1	1	357.488	-0.0155565	-0.0156596	0.000649371	2	-3.04668e-05	1.01689e-08
2	1	0	0	1	357.521	-0.0122178	-0.012337	0.000646153	2	-3.0444e-05	7.97156e-09
2	1	0	1	1	357.555	-0.00887906	-0.00900796	0.000646058	2	-3.04212e-05	5.81967e-09
2	1	0	1	1	357.588	-0.00556033	-0.00567071	0.000642633	2	-3.03986e-05	3.64419e-09
2	1	0	0	1	357.621	-0.0022216	-0.00234652	0.000640873	2	-3.0376e-05	1.50382e-09
2	1	0	1	1	357.655	0.00112505	0.000972892	0.000642062	2	-3.03535e-05	6.24657e-10
2	1	0	1	1	357.688	0.00444252	0.00434342	0.000640352	2	-3.03309e-05	2.78132e-09
2	1	0	0	1	357.721	0.00778125	0.00769062	0.000639904	2	-3.03083e-05	4.92126e-09
2	1	0	0	1	357.755	0.0111	0.0110204	0.000639523	2	-3.02859e-05	7.04782e-09
2	1	0	1	1	357.788	0.0144387	0.0143698	0.000638567	2	-3.02633e-05	9.17609e-09
2	1	0	0	1	357.821	0.0177708	0.0176832	0.000639171	2	-3.02409e-05	1.13026e-08
2	1	0	0	1	357.855	0.0211028	0.0210225	0.000639628	2	-3.02184e-05	1.34466e-08
2	1	0	1	1	357.888	0.0244416	0.0243608	0.00063938	2	-3.01959e-05	1.55758e-08
2	1	0	1	1	357.921	0.0277603	0.0276793	0.000640388	2	-3.01734e-05	1.77255e-08
2	1	0	0	1	357.955	0.031099	0.030999	0.000640771	2	-3.01508e-05	1.98632e-08
2	1	0	1	1	357.988	0.0344288	0.034349	0.000640998	2	-3.01282e-05	2.20176e-08
2	1	0	1	1	358.021	0.0377631	0.0376784	0.000641943	2	-3.01057e-05	2.41874e-08
2	1	0	0	1	358.055	0.0411019	0.0410028	0.000642421	2	-3.0083e-05	2.63411e-08
2	1	0	0	1	358.088	0.0444206	0.0443423	0.00064515	2	-3.00604e-05	2.86074e-08
2	1	0	1	1	358.121	0.0477593	0.0477153	0.000645977	2	-3.00376e-05	3.0823e-08
2	1	0	0	1	358.154	0.0510891	0.0510446	0.000647502	2	-3.00149e-05	3.30514e-08
2	1	0	0	1	358.188	0.0544234	0.0543871	0.000650145	2	-2.99921e-05	3.53595e-08
2	1	0	1	1	358.221	0.0577622	0.0577181	0.000650849	2	-2.99691e-05	3.75657e-08
2	1	0	1	1	358.254	0.0610809	0.0610393	0.000651827	2	-2.99463e-05	3.97871e-08
2	1	0	0	1	358.288	0.0644196	0.064365	0.000654889	2	-2.99232e-05	4.21519e-08
2	1	0	1	1	358.321	0.0677584	0.0677091	0.000657604	2	-2.99001e-05	4.45258e-08
2	1	0	1	1	358.354	0.0710838	0.0710412	0.000660215	2	-2.9877e-05	4.69025e-08
2	1	0	0	1	358.388	0.0744225	0.0743613	0.000661498	2	-2.98538e-05	4.91898e-08
2	1	0	0	1	358.421	0.0777412	0.0776815	0.000664465	2	-2.98306e-05	5.16166e-08
2	1	0	1	1	358.454	0.0810799	0.0810049	0.000665552	2	-2.98071e-05	5.39129e-08
2	1	0	0	1	358.488	0.0844187	0.0843439	0.000669496	2	-2.97836e-05	5.64679e-08
2	1	0	0	1	358.521	0.0877419	0.0876511	0.00067103	2	-2.97602e-05	5.88165e-08
2	1	0	1	1	358.554	0.0910828	0.0909956	0.000674014	2	-2.97365e-05	6.13323e-08
2	1	0	1	1	358.588	0.0944015	0.0943324	0.000678807	2	-2.97129e-05	6.40335e-08
2	1	0	0	1	358.621	0.0977402	0.0976606	0.000681304	2	-2.96889e-05	6.65366e-08
2	1	0	1	1	358.639	0.0995729	0.099517	0.000681742	2	-2.96757e-05	6.78449e-08
2	0	0	0	1	358.643	0.0999061	0.0998527	0.000677042	2	-2.9673e-05	6.76045e-08
2	0	0	1	1	358.662	0.0980734	0.0979923	0.000431363	2	-2.96654e-05	4.22702e-08
2	0	0	0	1	358.695	0.0947347	0.0946498	0.000342354	2	-2.96538e-05	3.24037e-08
2	0	0	0	1	358.728	0.091416	0.0913376	0.00028439	2	-2.96447e-05	2.59755e-08
2	0	0	1	1	358.762	0.088075	0.0879728	0.000233346	2	-2.96373e-05	2.05281e-08
2	0	0	1	1	358.795	0.0847519	0.0846681	0.000186822	2	-2.96316e-05	1.58179e-08
2	0	0	0	1	358.858	0.0784143	0.0782938	8.30139e-05	2	-2.96225e-05	6.49948e-09
2	0	0	1	1	358.892	0.0750756	0.0749458	4.33647e-05	2	-2.96208e-05	3.25e-09
2	0	0	1	1	358.925	0.0717568	0.0716308	7.16612e-06	2	-2.96204e-05	5.13315e-10
2	0	0	0	1	358.958	0.0684114	0.0682817	-2.81543e-05	2	-2.96212e-05	1.92242e-09
2	0	0	0	1	358.991	0.0650927	0.0649986	-6.19899e-05	2	-2.96232e-05	4.02926e-09
2	0	0	1	1	359.025	0.061754	0.0616611	-9.50059e-05	2	-2.96262e-05	5.85817e-09
2	0	0	0	1	359.058	0.0584153	0.0583132	-0.000127016	2	-2.96304e-05	7.40669e-09
2	0	0	0	1	359.091	0.0550965	0.0549955	-0.000158594	2	-2.96355e-05	8.72198e-09
2	0	0	1	1	359.125	0.0517534	0.0516356	-0.000188992	2	-2.96418e-05	9.75873e-09
2	0	0	1	1	359.158	0.0484324	0.0483213	-0.000217386	2	-2.9649e-05	1.05044e-08
2	0	0	0	1	359.191	0.0450937	0.0449601	-0.000248705	2	-2.96572e-05	1.11818e-08
2	0	0	1	1	359.225	0.0417549	0.041604	-0.000275237	2	-2.96664e-05	1.1451e-08
2	0	0	1	1	359.258	0.0384362	0.0382863	-0.000302155	2	-2.96764e-05	1.15684e-08
2	0	0	0	1	359.291	0.035093	0.0349549	-0.00033068	2	-2.96874e-05	1.15589e-08
2	0	0	0	1	359.325	0.0317721	0.0316098	-0.000356402	2	-2.96993e-05	1.12658e-08
2	0	0	1	1	359.358	0.0284334	0.0282808	-0.000382554	2	-2.9712e-05	1.08189e-08
2	0	0	0	1	359.391	0.0250946	0.02494	-0.000408449	2	-2.97257e-05	1.01867e-08
2	0	0	0	1	359.425	0.0217759	0.0216314	-0.000432108	2	-2.974e-05	9.34711e-09
2	0	0	1	1	359.458	0.018435	0.0182892	-0.000457691	2	-2.97553e-05	8.37082e-09
2	0	0	1	1	359.491	0.0151118	0.014983	-0.000481475	2	-2.97713e-05	7.21395e-09
2	0	0	0	1	359.525	0.0117731	0.0116161	-0.000506179	2	-2.97883e-05	5.87981e-09
2	0	0	1	1	359.558	0.00843433	0.00826234	-0.000530091	2	-2.9806e-05	4.37979e-09
2	0	0	1	1	359.591	0.0051156	0.00494459	-0.000552509	2	-2.98244e-05	2.73193e-09
2	0	0	0	1	359.625	0.00177687	0.0015889	-0.00057719	2	-2.98437e-05	9.17097e-10
2	0	0	0	1	359.658	-0.00154852	-0.00175943	-0.000598722	2	-2.98636e-05	1.05341e-09
2	0	0	1	1	359.691	-0.00488725	-0.0050865	-0.000619803	2	-2.98844e-05	3.15262e-09
2	0	0	0	1	359.725	-0.00822598	-0.00843647	-0.000642907	2	-2.99059e-05	5.42387e-09
2	0	0	0	1	359.758	-0.0115447	-0.0117546	-0.000663383	2	-2.9928e-05	7.79783e-09
2	0	0	1	1	359.791	-0.0148834	-0.0150907	-0.00068518	2	-2.9951e-05	1.03398e-08
2	0	0	0	1	359.824	-0.0182177	-0.0184404	-0.000706814	2	-2.99746e-05	1.3034e-08
2	0	0	0	1	359.858	-0.0215476	-0.0217554	-0.000726238	2	-2.99989e-05	1.57996e-08
2	0	0	1	1	359.891	-0.0248863	-0.0250971	-0.000747313	2	-3.00239e-05	1.87554e-08
2	0	0	1	1	359.924	-0.028205	-0.0283964	-0.000767701	2	-3.00495e-05	2.17999e-08
2	0	0	0	1	359.958	-0.0315438	-0.0317437	-0.000788934	2	-3.00759e-05	2.50437e-08
2	0	0	1	1	359.991	-0.0348758	-0.0350791	-0.000808641	2	-3.01029e-05	2.83664e-08
2	0	0	1	1	360.024	-0.0382079	-0.0383987	-0.000828168	2	-3.01306e-05	3.18006e-08
2	0	0	0	1	360.058	-0.0415466	-0.0417653	-0.000848842	2	-3.0159e-05	3.54521e-08
2	0	0	0	1	360.091	-0.0448653	-0.0451016	-0.000867992	2	-3.01879e-05	3.91479e-08
2	0	0	1	1	360.124	-0.0482041	-0.0484228	-0.00088614	2	-3.02176e-05	4.29093e-08
2	0	0	0	1	360.158	-0.0515339	-0.0517748	-0.000906465	2	-3.02479e-05	4.6932e-08
2	0	0	0	1	360.191	-0.0548682	-0.0551082	-0.000924728	2	-3.02788e-05	5.09601e-08
2	0	0	1	1	360.224	-0.0582069	-0.0584349	-0.000943239	2	-3.03104e-05	5.51181e-08
2	0	0	1	1	360.258	-0.0615257	-0.0617572	-0.000962517	2	-3.03425e-05	5.94424e-08
2	0	0	0	1	360.291	-0.0648644	-0.065072	-0.000980912	2	-3.03753e-05	6.38299e-08
2	0	0	1	1	360.341	-0.0698709	-0.0700322	-0.00099393	2	-3.0426e-05	6.96071e-08
2	0	0	0	1	360.391	-0.0748672	-0.0750173	-0.00101218	2	-3.04777e-05	7.59313e-08
2	0	0	0	1	360.424	-0.078186	-0.0783413	-0.00102948	2	-3.05128e-05	8.06509e-08
2	0	0	1	1	360.458	-0.0815247	-0.0816633	-0.00104849	2	-3.05487e-05	8.56233e-08
2	0	0	0	1	360.491	-0.0848634	-0.085002	-0.00106622	2	-3.05852e-05	9.06311e-08
2	0	0	0	1	360.524	-0.0881888	-0.0883217	-0.00108581	2	-3.06222e-05	9.59007e-08
2	0	0	1	1	360.558	-0.0915276	-0.0916448	-0.00110453	2	-3.066e-05	1.01225e-07
2	0	0	1	1	360.591	-0.0948463	-0.0949775	-0.00112402	2	-3.06982e-05	1.06757e-07
2	0	0	0	1	360.624	-0.098185	-0.0983203	-0.00114278	2	-3.07373e-05	1.12358e-07
2	0	0	1	1	360.658	-0.101524	-0.101666	-0.00116139	2	-3.0777e-05	1.18073e-07
2	0	0	1	1	360.691	-0.104847	-0.104961	-0.00118113	2	-3.08171e-05	1.23972e-07
2	0	0	0	1	360.724	-0.108188	-0.108298	-0.00120127	2	-3.08581e-05	1.30095e-07
2	0	0	0	1	360.757	-0.111507	-0.111624	-0.00122116	2	-3.08995e-05	1.3631e-07
2	0	0	1	1	360.791	-0.114845	-0.11497	-0.00124359	2	-3.09419e-05	1.42975e-07
2	0	0	0	1	360.824	-0.118184	-0.118313	-0.00126445	2	-3.0985e-05	1.496e-07
2	0	0	0	1	360.857	-0.121505	-0.121626	-0.00128699	2	-3.10286e-05	1.56532e-07
2	0	0	1	1	360.891	-0.124848	-0.124978	-0.00131102	2	-3.10732e-05	1.63849e-07
2	0	0	1	1	360.924	-0.128167	-0.128335	-0.00133534	2	-3.11184e-05	1.71372e-07
2	0	0	0	1	360.957	-0.131506	-0.131654	-0.00135871	2	-3.11645e-05	1.78879e-07
2	0	0	1	1	360.991	-0.134844	-0.134987	-0.00138739	2	-3.12116e-05	1.87279e-07
2	0	0	1	1	361.024	-0.138163	-0.138334	-0.00141668	2	-3.12594e-05	1.95976e-07
2	0	0	0	1	361.057	-0.141509	-0.141657	-0.00144676	2	-3.13084e-05	2.04943e-07
2	0	0	0	1	361.091	-0.144827	-0.144977	-0.00147957	2	-3.13582e-05	2.14504e-07
2	0	0	1	1	361.124	-0.148166	-0.148318	-0.00151418	2	-3.14094e-05	2.24579e-07
2	0	0	0	1	361.157	-0.151505	-0.151655	-0.00155092	2	-3.14618e-05	2.35204e-07
2	0	0	0	1	361.191	-0.154823	-0.154968	-0.00159186	2	-3.15152e-05	2.46687e-07
2	0	0	1	1	361.224	-0.158169	-0.158327	-0.0016378	2	-3.15704e-05	2.59307e-07
2	0	0	1	1	361.257	-0.161488	-0.16165	-0.00168462	2	-3.16268e-05	2.72319e-07
2	0	0	0	1	361.291	-0.164826	-0.164999	-0.00173577	2	-3.16851e-05	2.864e-07
2	0	0	1	1	361.324	-0.168165	-0.168329	-0.00179495	2	-3.17453e-05	3.02142e-07
2	0	0	1	1	361.357	-0.171484	-0.171646	-0.00185401	2	-3.18071e-05	3.18233e-07
2	0	0	0	1	361.391	-0.174827	-0.174978	-0.00191913	2	-3.18714e-05	3.35806e-07
2	0	0	0	1	361.424	-0.178148	-0.178305	-0.00199092	2	-3.19375e-05	3.54991e-07
2	0	0	1	1	361.457	-0.181487	-0.181643	-0.0020672	2	-3.20065e-05	3.75494e-07
2	0	0	0	1	361.491	-0.184825	-0.185002	-0.00214679	2	-3.20781e-05	3.9716e-07
2	0	0	0	1	361.524	-0.188144	-0.188331	-0.00223226	2	-3.21521e-05	4.20404e-07
2	0	0	1	1	361.557	-0.191485	-0.191639	-0.00232283	2	-3.22294e-05	4.45146e-07
2	0	0	1	1	361.59	-0.194808	-0.194957	-0.00241865	2	-3.23094e-05	4.71531e-07
2	0	0	0	1	361.624	-0.198147	-0.198277	-0.00251822	2	-3.23931e-05	4.99305e-07
2	0	0	1	1	361.657	-0.201486	-0.201625	-0.00262162	2	-3.24802e-05	5.28584e-07
2	0	0	1	1	361.69	-0.204804	-0.204977	-0.00272747	2	-3.25703e-05	5.59067e-07
2	0	0	0	1	361.724	-0.208143	-0.208304	-0.00283482	2	-3.26644e-05	5.90506e-07
2	0	0	0	1	361.757	-0.211469	-0.211631	-0.00294747	2	-3.27617e-05	6.23776e-07
2	0	0	1	1	361.79	-0.214807	-0.214977	-0.00305318	2	-3.28632e-05	6.56363e-07
2	0	0	0	1	361.824	-0.218146	-0.218317	-0.00315658	2	-3.29682e-05	6.89135e-07
2	0	0	0	1	361.857	-0.221465	-0.221644	-0.00325902	2	-3.3076e-05	7.22342e-07
2	0	0	1	1	361.89	-0.224803	-0.224988	-0.00335559	2	-3.31877e-05	7.54967e-07
2	0	0	0	1	361.924	-0.228138	-0.228328	-0.0034429	2	-3.33022e-05	7.86112e-07
2	0	0	0	1	361.957	-0.231468	-0.231647	-0.00353191	2	-3.34196e-05	8.18157e-07
2	0	0	1	1	361.99	-0.234806	-0.234996	-0.00360333	2	-3.354e-05	8.46769e-07
2	0	0	1	1	362.024	-0.238125	-0.238304	-0.00367145	2	-3.3662e-05	8.74924e-07
2	0	0	0	1	362.057	-0.241464	-0.241622	-0.00373001	2	-3.37869e-05	9.01252e-07
2	0	0	1	1	362.09	-0.244796	-0.244963	-0.00377667	2	-3.39131e-05	9.25144e-07
2	0	0	1	1	362.124	-0.248128	-0.248307	-0.00381926	2	-3.40408e-05	9.48352e-07
2	0	0	0	1	362.157	-0.251467	-0.251637	-0.00384721	2	-3.41701e-05	9.681e-07
2	0	0	0	1	362.19	-0.254785	-0.254963	-0.0038658	2	-3.42993e-05	9.85634e-07
2	0	0	1	1	362.224	-0.258124	-0.258283	-0.00387545	2	-3.44298e-05	1.00096e-06
2	0	0	0	1	362.257	-0.261456	-0.261602	-0.00387661	2	-3.456e-05	1.01413e-06
2	0	0	0	1	362.29	-0.264788	-0.264944	-0.00387852	2	-3.46904e-05	1.02759e-06
2	0	0	1	1	362.324	-0.268127	-0.268291	-0.00386673	2	-3.48209e-05	1.03741e-06
2	0	0	1	1	362.357	-0.271446	-0.271598	-0.00385217	2	-3.49502e-05	1.04624e-06
2	0	0	0	1	362.39	-0.274784	-0.27495	-0.0038345	2	-3.50798e-05	1.05429e-06
2	0	0	1	1	362.423	-0.278114	-0.278265	-0.00381575	2	-3.52083e-05	1.06179e-06
2	0	0	1	1	362.457	-0.281448	-0.281597	-0.00379188	2	-3.53361e-05	1.06778e-06
2	0	0	0	1	362.49	-0.284787	-0.284912	-0.00376251	2	-3.54635e-05	1.07198e-06
2	0	0	0	1	362.523	-0.288106	-0.288254	-0.00373809	2	-3.55892e-05	1.07752e-06
2	0	0	1	1	362.557	-0.291445	-0.291587	-0.00371234	2	-3.57148e-05	1.08247e-06
2	0	0	0	1	362.59	-0.294783	-0.294933	-0.00368587	2	-3.58395e-05	1.08709e-06
2	0	0	0	1	362.623	-0.298109	-0.298292	-0.00366253	2	-3.59627e-05	1.0925e-06
2	0	0	1	1	362.657	-0.301448	-0.30164	-0.00363644	2	-3.60858e-05	1.0969e-06
2	0	0	1	1	362.69	-0.304766	-0.304945	-0.00361201	2	-3.62072e-05	1.10146e-06
2	0	0	0	1	362.723	-0.308105	-0.308281	-0.00359027	2	-3.63287e-05	1.10681e-06
2	0	0	1	1	362.757	-0.311444	-0.311617	-0.00356853	2	-3.64494e-05	1.11202e-06
2	0	0	1	1	362.79	-0.314767	-0.314938	-0.00354413	2	-3.65687e-05	1.11618e-06
2	0	0	0	1	362.823	-0.318108	-0.318285	-0.0035257	2	-3.66879e-05	1.12218e-06
2	0	0	0	1	362.857	-0.321427	-0.321603	-0.00350743	2	-3.68059e-05	1.128e-06
2	0	0	1	1	362.89	-0.324765	-0.32493	-0.0034904	2	-3.6924e-05	1.13413e-06
2	0	0	0	1	362.923	-0.328104	-0.328263	-0.00347724	2	-3.70415e-05	1.14145e-06
2	0	0	0	1	362.957	-0.331425	-0.331585	-0.00346	2	-3.71579e-05	1.14728e-06
2	0	0	1	1	362.99	-0.334768	-0.334934	-0.00344909	2	-3.72745e-05	1.15522e-06
2	0	0	1	1	363.023	-0.338087	-0.33827	-0.0034399	2	-3.739e-05	1.16361e-06
2	0	0	0	1	363.057	-0.341426	-0.341627	-0.00342816	2	-3.7506e-05	1.17115e-06
2	0	0	1	1	363.09	-0.344764	-0.344968	-0.0034168	2	-3.76215e-05	1.17868e-06
2	0	0	1	1	363.123	-0.348083	-0.348276	-0.0034115	2	-3.7736e-05	1.18814e-06
2	0	0	0	1	363.157	-0.351428	-0.351638	-0.00340455	2	-3.78511e-05	1.19717e-06
2	0	0	0	1	363.19	-0.354747	-0.354963	-0.00340125	2	-3.79653e-05	1.20732e-06
2	0	0	1	1	363.223	-0.358086	-0.358283	-0.0033955	2	-3.808e-05	1.21655e-06
2	0	0	0	1	363.257	-0.361425	-0.361619	-0.00339514	2	-3.81946e-05	1.22775e-06
2	0	0	0	1	363.29	-0.364743	-0.364931	-0.0033935	2	-3.83085e-05	1.23839e-06
2	0	0	1	1	363.323	-0.368089	-0.368258	-0.00338993	2	-3.8423e-05	1.24837e-06
2	0	0	1	1	363.356	-0.371408	-0.371592	-0.00339136	2	-3.85368e-05	1.2602e-06
2	0	0	0	1	363.39	-0.374746	-0.374918	-0.00339299	2	-3.86514e-05	1.27209e-06
2	0	0	1	1	363.423	-0.378085	-0.378275	-0.00339168	2	-3.87659e-05	1.28299e-06
2	0	0	1	1	363.456	-0.381404	-0.381596	-0.00339794	2	-3.88798e-05	1.29664e-06
2	0	0	0	1	363.49	-0.384747	-0.38496	-0.0034011	2	-3.89946e-05	1.30929e-06
2	0	0	0	1	363.523	-0.388068	-0.38828	-0.00340266	2	-3.91087e-05	1.32118e-06
2	0	0	1	1	363.556	-0.391407	-0.391624	-0.0034083	2	-3.92237e-05	1.33477e-06
2	0	0	0	1	363.59	-0.394745	-0.394969	-0.00341579	2	-3.93389e-05	1.34913e-06
2	0	0	0	1	363.623	-0.398064	-0.398273	-0.00341442	2	-3.94535e-05	1.35987e-06
2	0	0	1	1	363.656	-0.401405	-0.401624	-0.00342512	2	-3.9569e-05	1.37561e-06
2	0	0	1	1	363.69	-0.404728	-0.404926	-0.00343109	2	-3.9684e-05	1.38934e-06
2	0	0	0	1	363.723	-0.408067	-0.408267	-0.00343883	2	-3.98e-05	1.40396e-06
2	0	0	1	1	363.756	-0.411406	-0.411604	-0.00344613	2	-3.99162e-05	1.41844e-06
2	0	0	1	1	363.79	-0.414724	-0.414924	-0.00345633	2	-4.0032e-05	1.43411e-06
2	0	0	0	1	363.823	-0.418063	-0.418268	-0.00346726	2	-4.01488e-05	1.45024e-06
2	0	0	0	1	363.856	-0.421388	-0.421602	-0.00347834	2	-4.02653e-05	1.46648e-06
2	0	0	1	1	363.89	-0.424727	-0.424922	-0.00348521	2	-4.03828e-05	1.48094e-06
2	0	0	0	1	363.923	-0.428066	-0.428275	-0.00349473	2	-4.05006e-05	1.49671e-06
2	0	0	0	1	363.956	-0.431385	-0.431571	-0.00350631	2	-4.0618e-05	1.51322e-06
2	0	0	1	1	363.99	-0.434723	-0.434916	-0.00351786	2	-4.07366e-05	1.52997e-06
2	0	0	0	1	364.023	-0.438058	-0.438253	-0.00352919	2	-4.08551e-05	1.54668e-06
2	0	0	0	1	364.056	-0.441388	-0.441593	-0.00354272	2	-4.09741e-05	1.56444e-06
2	0	0	1	1	364.09	-0.444726	-0.444931	-0.00355848	2	-4.10939e-05	1.58328e-06
2	0	0	1	1	364.123	-0.448045	-0.448225	-0.00356821	2	-4.12134e-05	1.59936e-06
2	0	0	0	1	364.156	-0.451384	-0.45155	-0.0035826	2	-4.13341e-05	1.61772e-06
2	0	0	1	1	364.189	-0.454718	-0.454894	-0.00359849	2	-4.14548e-05	1.63693e-06
2	0	0	1	1	364.223	-0.458048	-0.45822	-0.00361237	2	-4.15761e-05	1.65526e-06
2	0	0	0	1	364.256	-0.461387	-0.461587	-0.00362868	2	-4.16982e-05	1.67495e-06
2	0	0	0	1	364.289	-0.464705	-0.464881	-0.00364636	2	-4.18202e-05	1.69512e-06
2	0	0	1	1	364.323	-0.468044	-0.468241	-0.0036647	2	-4.19435e-05	1.71596e-06
2	0	0	0	1	364.356	-0.471376	-0.471599	-0.00368178	2	-4.2067e-05	1.73632e-06
2	0	0	0	1	364.389	-0.474708	-0.474909	-0.00369854	2	-4.21912e-05	1.75647e-06
2	0	0	1	1	364.423	-0.478047	-0.478259	-0.0037194	2	-4.23163e-05	1.77884e-06
2	0	0	1	1	364.456	-0.481366	-0.481578	-0.00373459	2	-4.24412e-05	1.7985e-06
2	0	0	0	1	364.489	-0.484704	-0.484913	-0.00375222	2	-4.25675e-05	1.8195e-06
2	0	0	1	1	364.523	-0.488034	-0.48825	-0.00377757	2	-4.26941e-05	1.8444e-06
2	0	0	1	1	364.556	-0.491368	-0.491565	-0.00379517	2	-4.28214e-05	1.86557e-06
2	0	0	0	1	364.589	-0.494707	-0.49488	-0.00381729	2	-4.29498e-05	1.8891e-06
2	0	0	0	1	364.623	-0.498026	-0.498225	-0.00384388	2	-4.30782e-05	1.91512e-06
2	0	0	1	1	364.656	-0.501365	-0.501574	-0.00386067	2	-4.32082e-05	1.93641e-06
2	0	0	0	1	364.689	-0.504703	-0.504894	-0.00388661	2	-4.33387e-05	1.96233e-06
2	0	0	0	1	364.723	-0.508029	-0.50825	-0.00391277	2	-4.34694e-05	1.98867e-06
2	0	0	1	1	364.756	-0.511368	-0.511587	-0.00393894	2	-4.36018e-05	2.01511e-06
2	0	0	1	1	364.789	-0.514686	-0.514908	-0.00396685	2	-4.37342e-05	2.04256e-06
2	0	0	0	1	364.823	-0.518025	-0.518222	-0.00399506	2	-4.38684e-05	2.07033e-06
2	0	0	1	1	364.856	-0.521364	-0.521561	-0.0040247	2	-4.40036e-05	2.09913e-06
2	0	0	1	1	364.889	-0.524687	-0.524888	-0.00405705	2	-4.41389e-05	2.1295e-06
2	0	0	0	1	364.923	-0.528028	-0.52824	-0.00408779	2	-4.42762e-05	2.15933e-06
2	0	0	0	1	364.956	-0.531347	-0.531553	-0.00411928	2	-4.44136e-05	2.18962e-06
2	0	0	1	1	364.989	-0.534685	-0.534869	-0.00415528	2	-4.4553e-05	2.22253e-06
2	0	0	0	1	365.023	-0.538024	-0.5382	-0.00419271	2	-4.46937e-05	2.25652e-06
2	0	0	0	1	365.056	-0.541345	-0.54154	-0.00422605	2	-4.48347e-05	2.28858e-06
2	0	0	1	1	365.089	-0.544688	-0.544886	-0.00426733	2	-4.49777e-05	2.32521e-06
2	0	0	1	1	365.122	-0.548007	-0.548191	-0.00430205	2	-4.51212e-05	2.35835e-06
2	0	0	0	1	365.156	-0.551346	-0.551535	-0.00434614	2	-4.52669e-05	2.39705e-06
2	0	0	1	1	365.189	-0.554684	-0.554909	-0.00439097	2	-4.54141e-05	2.43659e-06
2	0	0	1	1	365.222	-0.558005	-0.558234	-0.0044384	2	-4.55619e-05	2.47767e-06
2	0	0	0	1	365.256	-0.561349	-0.561549	-0.00448055	2	-4.57121e-05	2.51605e-06
2	0	0	0	1	365.289	-0.564667	-0.564881	-0.00453092	2	-4.58629e-05	2.55943e-06
2	0	0	1	1	365.322	-0.568006	-0.568224	-0.00457902	2	-4.60164e-05	2.60191e-06
2	0	0	0	1	365.356	-0.571345	-0.571571	-0.00463453	2	-4.61715e-05	2.64896e-06
2	0	0	0	1	365.389	-0.574663	-0.574883	-0.00468399	2	-4.63274e-05	2.69274e-06
2	0	0	1	1	365.422	-0.578009	-0.578234	-0.00474195	2	-4.64861e-05	2.74195e-06
2	0	0	1	1	365.456	-0.581327	-0.581523	-0.00479869	2	-4.66457e-05	2.79055e-06
2	0	0	0	1	365.489	-0.584666	-0.58487	-0.00486531	2	-4.68084e-05	2.84557e-06
2	0	0	1	1	365.522	-0.588005	-0.588228	-0.00492578	2	-4.69731e-05	2.89748e-06
2	0	0	1	1	365.556	-0.591324	-0.591525	-0.00498854	2	-4.7139e-05	2.95084e-06
2	0	0	0	1	365.589	-0.594667	-0.594865	-0.00505711	2	-4.7308e-05	3.0083e-06
2	0	0	0	1	365.622	-0.597988	-0.598193	-0.00512074	2	-4.74782e-05	3.06319e-06
2	0	0	1	1	365.641	-0.599827	-0.600047	-0.00516623	2	-4.75733e-05	3.09998e-06