File: TAP_Report/Data/MB_PB/100 uM MB 10mM PB  second ito_06_CV_C01_2.mpt
EC-Lab ASCII FILE
Nb header lines : 53

Cyclic Voltammetry

Run on channel : 1 (SN 0696)
User :
Electrode connection : standard
Ewe ctrl range : min = -10.00 V, max = 10.00 V
Ewe,I filtering : 50 kHz
Channel : Grounded
Acquisition started on : 05/17/2017 12:39:23
Saved on :
	File : 100 uM MB 10mM PB  second ito_06_CV_C01.mpr
	Directory : \\userfs\st659\w2k\EC-Lab\Data\ITO Characterisation 17-5-17\
	Host : 144.32.136.43
Device : SP-300 (SN 0182)
Address : USB
EC-Lab for windows v10.44 (software)
Internet server v10.44 (firmware)
Command interpretor v10.44 (firmware)
Electrode material :
Initial state :
Electrolyte :
Comments :
Cable : standard
Electrode surface area : 0.001 cm²
Characteristic mass : 0.001 g
Equivalent Weight : 0.000 g/eq.
Density : 0.000 g/cm3
Ei (V)              0.000
vs.                 Eoc
dE/dt               1000.000
dE/dt unit          mV/s
E1 (V)              0.100
vs.                 Ref
Step percent        50
N                   10
E range min (V)     -10.000
E range max (V)     10.000
I Range             Auto
I Range min         Unset
I Range max         Unset
I Range init        Unset
Bandwidth           8
E2 (V)              -0.600
vs.                 Ref
nc cycles           2
Reverse Scan        1
Ef (V)              0.000
vs.                 Eoc

mode	ox/red	error	control changes	counter inc.	time/s	control/V	Ewe/V	<I>/mA	cycle number	(Q-Qo)/C	P/W
2	1	0	1	1	420.577	-0.60016	-0.600432	-0.0110936	2	-5.48557e-06	6.66096e-06
2	1	0	1	1	420.579	-0.598261	-0.598477	-0.00987393	2	-5.50459e-06	5.90932e-06
2	1	0	1	1	420.582	-0.595062	-0.595284	-0.00846768	2	-5.53368e-06	5.04067e-06
2	1	0	0	1	420.585	-0.591664	-0.59188	-0.00751825	2	-5.56064e-06	4.44991e-06
2	1	0	1	1	420.589	-0.588265	-0.588483	-0.00686849	2	-5.58494e-06	4.04199e-06
2	1	0	1	1	420.592	-0.585066	-0.585288	-0.00640914	2	-5.60605e-06	3.75119e-06
2	1	0	0	1	420.595	-0.581667	-0.581874	-0.00601549	2	-5.62703e-06	3.50026e-06
2	1	0	1	1	420.599	-0.578269	-0.578503	-0.00570013	2	-5.64683e-06	3.29755e-06
2	1	0	1	1	420.602	-0.57507	-0.575292	-0.00542876	2	-5.66452e-06	3.12312e-06
2	1	0	0	1	420.605	-0.571671	-0.571905	-0.00517473	2	-5.68243e-06	2.95946e-06
2	1	0	1	1	420.609	-0.568272	-0.568502	-0.00496841	2	-5.69956e-06	2.82455e-06
2	1	0	1	1	420.612	-0.565074	-0.565306	-0.00477691	2	-5.71505e-06	2.70041e-06
2	1	0	0	1	420.615	-0.561675	-0.561882	-0.00459322	2	-5.73087e-06	2.58085e-06
2	1	0	1	1	420.619	-0.558276	-0.558511	-0.00442757	2	-5.7461e-06	2.47285e-06
2	1	0	1	1	420.622	-0.555077	-0.555302	-0.00427511	2	-5.75993e-06	2.37398e-06
2	1	0	0	1	420.625	-0.551679	-0.551873	-0.00413089	2	-5.77411e-06	2.27973e-06
2	1	0	1	1	420.629	-0.54828	-0.54847	-0.00399201	2	-5.78782e-06	2.1895e-06
2	1	0	1	1	420.632	-0.545081	-0.545289	-0.00387234	2	-5.8003e-06	2.11154e-06
2	1	0	0	1	420.635	-0.541683	-0.541891	-0.00374992	2	-5.81315e-06	2.03205e-06
2	1	0	1	1	420.639	-0.538284	-0.538498	-0.00363563	2	-5.82561e-06	1.95778e-06
2	1	0	1	1	420.642	-0.535085	-0.535284	-0.00353616	2	-5.83699e-06	1.89285e-06
2	1	0	0	1	420.645	-0.531686	-0.531886	-0.00343946	2	-5.84874e-06	1.8294e-06
2	1	0	1	1	420.649	-0.528288	-0.528492	-0.003333	2	-5.86016e-06	1.76147e-06
2	1	0	1	1	420.652	-0.525089	-0.525303	-0.0032496	2	-5.8706e-06	1.70703e-06
2	1	0	0	1	420.655	-0.52169	-0.52192	-0.00315749	2	-5.88138e-06	1.64796e-06
2	1	0	1	1	420.659	-0.518292	-0.51848	-0.00306291	2	-5.89186e-06	1.58805e-06
2	1	0	1	1	420.662	-0.515093	-0.515308	-0.00299131	2	-5.90145e-06	1.54144e-06
2	1	0	0	1	420.665	-0.511694	-0.511898	-0.0029111	2	-5.91139e-06	1.49019e-06
2	1	0	1	1	420.669	-0.508295	-0.508516	-0.00283266	2	-5.92106e-06	1.44045e-06
2	1	0	1	1	420.672	-0.505097	-0.505321	-0.00276431	2	-5.92993e-06	1.39686e-06
2	1	0	0	1	420.675	-0.501698	-0.50192	-0.00269031	2	-5.93909e-06	1.35032e-06
2	1	0	1	1	420.679	-0.498299	-0.498516	-0.00261868	2	-5.94803e-06	1.30545e-06
2	1	0	1	1	420.682	-0.4951	-0.495277	-0.00254934	2	-5.9562e-06	1.26263e-06
2	1	0	0	1	420.685	-0.491702	-0.491916	-0.00248743	2	-5.96467e-06	1.2236e-06
2	1	0	1	1	420.689	-0.488303	-0.488517	-0.00242424	2	-5.97293e-06	1.18428e-06
2	1	0	1	1	420.692	-0.485104	-0.485312	-0.00236178	2	-5.9805e-06	1.1462e-06
2	1	0	0	1	420.695	-0.481705	-0.481923	-0.00230377	2	-5.98833e-06	1.11024e-06
2	1	0	1	1	420.699	-0.478307	-0.47854	-0.00224188	2	-5.99596e-06	1.07283e-06
2	1	0	1	1	420.702	-0.475108	-0.475306	-0.00218461	2	-6.00295e-06	1.03836e-06
2	1	0	0	1	420.705	-0.471709	-0.471929	-0.00212768	2	-6.01018e-06	1.00411e-06
2	1	0	1	1	420.709	-0.468311	-0.468533	-0.00206922	2	-6.01723e-06	9.69497e-07
2	1	0	1	1	420.712	-0.465112	-0.465304	-0.00201216	2	-6.02366e-06	9.36267e-07
2	1	0	0	1	420.715	-0.461713	-0.461909	-0.00195839	2	-6.03031e-06	9.04596e-07
2	1	0	1	1	420.719	-0.458314	-0.458528	-0.00190966	2	-6.0368e-06	8.7563e-07
2	1	0	1	1	420.722	-0.455116	-0.455295	-0.00185566	2	-6.04273e-06	8.44874e-07
2	1	0	0	1	420.725	-0.451717	-0.451892	-0.00180753	2	-6.04886e-06	8.16809e-07
2	1	0	1	1	420.729	-0.448318	-0.448497	-0.00175624	2	-6.05483e-06	7.8767e-07
2	1	0	1	1	420.732	-0.445119	-0.445305	-0.00171325	2	-6.06029e-06	7.62918e-07
2	1	0	0	1	420.735	-0.441721	-0.441924	-0.00166	2	-6.06592e-06	7.33596e-07
2	1	0	1	1	420.739	-0.438412	-0.438635	-0.00160919	2	-6.07123e-06	7.05847e-07
2	1	0	1	1	420.742	-0.435057	-0.435255	-0.00154157	2	-6.07633e-06	6.70975e-07
2	1	0	0	1	420.745	-0.431658	-0.431848	-0.0015047	2	-6.08142e-06	6.49801e-07
2	1	0	0	1	420.749	-0.428459	-0.428664	-0.00146507	2	-6.08609e-06	6.28023e-07
2	1	0	1	1	420.752	-0.42506	-0.425283	-0.00142373	2	-6.0909e-06	6.05487e-07
2	1	0	0	1	420.755	-0.421662	-0.421902	-0.0013788	2	-6.09557e-06	5.81719e-07
2	1	0	0	1	420.759	-0.418463	-0.418697	-0.00133397	2	-6.09982e-06	5.58529e-07
2	1	0	1	1	420.762	-0.415064	-0.415283	-0.00128463	2	-6.10417e-06	5.33486e-07
2	1	0	0	1	420.765	-0.411666	-0.411886	-0.00123916	2	-6.10837e-06	5.1039e-07
2	1	0	0	1	420.784	-0.393272	-0.393494	-0.000989622	2	-6.12867e-06	3.8941e-07
2	1	0	1	1	420.802	-0.37468	-0.374878	-0.000750577	2	-6.14833e-06	2.81374e-07
2	1	0	1	1	420.806	-0.371481	-0.371669	-0.000701636	2	-6.15061e-06	2.60777e-07
2	1	0	0	1	420.809	-0.368082	-0.368256	-0.000653653	2	-6.15285e-06	2.40711e-07
2	1	0	1	1	420.812	-0.364683	-0.364882	-0.000614498	2	-6.15496e-06	2.24219e-07
2	1	0	1	1	420.816	-0.361485	-0.361678	-0.00057374	2	-6.15681e-06	2.07509e-07
2	1	0	0	1	420.819	-0.358086	-0.358287	-0.000523129	2	-6.15862e-06	1.8743e-07
2	1	0	1	1	420.822	-0.354687	-0.354887	-0.000479737	2	-6.16027e-06	1.70253e-07
2	1	0	1	1	420.826	-0.351488	-0.351691	-0.000431869	2	-6.16169e-06	1.51885e-07
2	1	0	0	1	420.829	-0.34809	-0.348284	-0.000383557	2	-6.16301e-06	1.33587e-07
2	1	0	1	1	420.832	-0.344691	-0.344897	-0.000337761	2	-6.16419e-06	1.16492e-07
2	1	0	1	1	420.836	-0.341492	-0.341698	-0.000298929	2	-6.16516e-06	1.02144e-07
2	1	0	0	1	420.839	-0.338094	-0.338272	-0.00023813	2	-6.16601e-06	8.05527e-08
2	1	0	1	1	420.842	-0.334695	-0.334875	-0.000190047	2	-6.16669e-06	6.36421e-08
2	1	0	1	1	420.846	-0.331496	-0.33166	-0.000142261	2	-6.16717e-06	4.71823e-08
2	1	0	0	1	420.849	-0.328097	-0.328239	-8.53395e-05	2	-6.1675e-06	2.80117e-08
2	1	0	1	1	420.852	-0.324699	-0.324848	-3.91872e-05	2	-6.16766e-06	1.27299e-08
2	1	0	1	1	420.856	-0.3215	-0.321653	1.2271e-05	2	-6.16766e-06	3.947e-09
2	1	0	0	1	420.859	-0.318101	-0.318266	6.44234e-05	2	-6.16746e-06	2.05038e-08
2	1	0	1	1	420.862	-0.314703	-0.314886	0.000123823	2	-6.16709e-06	3.89902e-08
2	1	0	1	1	420.866	-0.311504	-0.311692	0.000176179	2	-6.16656e-06	5.49136e-08
2	1	0	0	1	420.869	-0.308105	-0.308287	0.000241537	2	-6.16579e-06	7.44629e-08
2	1	0	1	1	420.872	-0.304706	-0.30486	0.000300915	2	-6.16481e-06	9.17372e-08
2	1	0	1	1	420.876	-0.301507	-0.301682	0.000364412	2	-6.1637e-06	1.09936e-07
2	1	0	0	1	420.879	-0.298109	-0.298278	0.000431773	2	-6.16228e-06	1.28788e-07
2	1	0	1	1	420.882	-0.29471	-0.29486	0.000512313	2	-6.16063e-06	1.51061e-07
2	1	0	1	1	420.886	-0.291511	-0.291651	0.000569306	2	-6.15884e-06	1.66039e-07
2	1	0	0	1	420.889	-0.288113	-0.288252	0.000636611	2	-6.15673e-06	1.83504e-07
2	1	0	1	1	420.892	-0.284714	-0.284853	0.000730643	2	-6.15436e-06	2.08126e-07
2	1	0	1	1	420.896	-0.281515	-0.28166	0.000800393	2	-6.15186e-06	2.25439e-07
2	1	0	0	1	420.899	-0.278116	-0.278265	0.000887458	2	-6.14893e-06	2.46949e-07
2	1	0	1	1	420.902	-0.274718	-0.274864	0.000972669	2	-6.14571e-06	2.67351e-07
2	1	0	1	1	420.906	-0.271519	-0.27167	0.00105592	2	-6.14241e-06	2.86862e-07
2	1	0	0	1	420.909	-0.26812	-0.268271	0.00114734	2	-6.1386e-06	3.07798e-07
2	1	0	1	1	420.912	-0.264722	-0.264876	0.00124997	2	-6.13448e-06	3.31086e-07
2	1	0	1	1	420.916	-0.261478	-0.261634	0.00135412	2	-6.13026e-06	3.54284e-07
2	1	0	0	1	420.919	-0.258057	-0.258204	0.00146375	2	-6.12541e-06	3.77947e-07
2	1	0	0	1	420.922	-0.254859	-0.255024	0.00155574	2	-6.12053e-06	3.96752e-07
2	1	0	1	1	420.926	-0.25146	-0.251631	0.00166725	2	-6.11498e-06	4.1953e-07
2	1	0	0	1	420.929	-0.248061	-0.248235	0.00178776	2	-6.10905e-06	4.43785e-07
2	1	0	0	1	420.932	-0.244862	-0.245028	0.00191147	2	-6.10308e-06	4.68362e-07
2	1	0	1	1	420.936	-0.241464	-0.241617	0.00202265	2	-6.09632e-06	4.88706e-07
2	1	0	0	1	420.939	-0.238065	-0.238242	0.00216616	2	-6.08914e-06	5.16071e-07
2	1	0	0	1	420.942	-0.234866	-0.235032	0.00230664	2	-6.08192e-06	5.42135e-07
2	1	0	1	1	420.946	-0.231468	-0.231652	0.00244129	2	-6.07378e-06	5.6553e-07
2	1	0	0	1	420.949	-0.228069	-0.228237	0.00259423	2	-6.06516e-06	5.92099e-07
2	1	0	0	1	420.952	-0.22487	-0.22506	0.00275555	2	-6.05654e-06	6.20164e-07
2	1	0	1	1	420.956	-0.221471	-0.221647	0.00291763	2	-6.04683e-06	6.46683e-07
2	1	0	0	1	420.959	-0.218073	-0.218245	0.00306066	2	-6.0366e-06	6.67973e-07
2	1	0	0	1	420.962	-0.214874	-0.215052	0.00321011	2	-6.02652e-06	6.90342e-07
2	1	0	1	1	420.966	-0.211475	-0.211631	0.00339217	2	-6.01522e-06	7.17887e-07
2	1	0	0	1	420.969	-0.208076	-0.208206	0.00356281	2	-6.00334e-06	7.41799e-07
2	1	0	0	1	420.972	-0.204878	-0.205018	0.0037052	2	-5.99165e-06	7.59633e-07
2	1	0	1	1	420.976	-0.201479	-0.201633	0.00388691	2	-5.97867e-06	7.83729e-07
2	1	0	0	1	420.979	-0.19808	-0.198217	0.00406506	2	-5.96509e-06	8.05763e-07
2	1	0	0	1	420.982	-0.194882	-0.195025	0.00420732	2	-5.9518e-06	8.20531e-07
2	1	0	1	1	420.986	-0.191483	-0.191634	0.0043835	2	-5.93713e-06	8.40026e-07
2	1	0	0	1	420.989	-0.188084	-0.188266	0.00453573	2	-5.9219e-06	8.53922e-07
2	1	0	0	1	420.992	-0.184885	-0.185054	0.00466856	2	-5.90711e-06	8.63935e-07
2	1	0	1	1	420.996	-0.181487	-0.18164	0.00483044	2	-5.89089e-06	8.77402e-07
2	1	0	0	1	420.999	-0.178088	-0.178236	0.00497443	2	-5.87416e-06	8.86624e-07
2	1	0	0	1	421.002	-0.174889	-0.17503	0.00511746	2	-5.85796e-06	8.95709e-07
2	1	0	1	1	421.006	-0.17149	-0.171635	0.00526526	2	-5.84024e-06	9.03701e-07
2	1	0	0	1	421.009	-0.168092	-0.168256	0.00535592	2	-5.82214e-06	9.01164e-07
2	1	0	0	1	421.012	-0.164893	-0.165042	0.00549887	2	-5.80471e-06	9.07545e-07
2	1	0	1	1	421.016	-0.161494	-0.16163	0.00561303	2	-5.78575e-06	9.07237e-07
2	1	0	0	1	421.019	-0.158096	-0.158228	0.00572619	2	-5.76642e-06	9.06045e-07
2	1	0	0	1	421.022	-0.154897	-0.155016	0.00584065	2	-5.74786e-06	9.05394e-07
2	1	0	1	1	421.026	-0.151498	-0.151642	0.00594374	2	-5.72775e-06	9.0132e-07
2	1	0	0	1	421.029	-0.148099	-0.148246	0.00605235	2	-5.70731e-06	8.97236e-07
2	1	0	0	1	421.032	-0.144901	-0.145041	0.00612856	2	-5.68778e-06	8.88892e-07
2	1	0	1	1	421.036	-0.141502	-0.141654	0.00617115	2	-5.66681e-06	8.7417e-07
2	1	0	0	1	421.039	-0.138103	-0.138259	0.00623924	2	-5.64567e-06	8.62633e-07
2	1	0	0	1	421.042	-0.134904	-0.135018	0.00631456	2	-5.62554e-06	8.52581e-07
2	1	0	1	1	421.046	-0.131506	-0.13165	0.00636773	2	-5.60392e-06	8.38309e-07
2	1	0	0	1	421.049	-0.128107	-0.128247	0.0063899	2	-5.58219e-06	8.19484e-07
2	1	0	0	1	421.052	-0.124908	-0.125015	0.00646353	2	-5.56158e-06	8.08039e-07
2	1	0	1	1	421.056	-0.121509	-0.121621	0.00645945	2	-5.53956e-06	7.85603e-07
2	1	0	0	1	421.059	-0.118111	-0.118232	0.00648969	2	-5.5175e-06	7.67289e-07
2	1	0	0	1	421.062	-0.114912	-0.115014	0.00649933	2	-5.49667e-06	7.47514e-07
2	1	0	1	1	421.066	-0.111513	-0.111621	0.00649611	2	-5.47452e-06	7.251e-07
2	1	0	0	1	421.069	-0.108115	-0.108232	0.00649314	2	-5.45241e-06	7.02764e-07
2	1	0	0	1	421.072	-0.104916	-0.105042	0.00649059	2	-5.43158e-06	6.81783e-07
2	1	0	1	1	421.076	-0.101517	-0.101624	0.00649112	2	-5.40946e-06	6.59655e-07
2	1	0	0	1	421.079	-0.0981184	-0.0982364	0.0064306	2	-5.38745e-06	6.31719e-07
2	1	0	0	1	421.082	-0.0949196	-0.0950367	0.00641086	2	-5.36687e-06	6.09267e-07
2	1	0	1	1	421.086	-0.0915209	-0.0916151	0.00639328	2	-5.34505e-06	5.85721e-07
2	1	0	0	1	421.089	-0.0882126	-0.0883278	0.00633662	2	-5.32401e-06	5.597e-07
2	1	0	0	1	421.092	-0.0848568	-0.0849729	0.00631677	2	-5.30308e-06	5.36754e-07
2	1	0	1	1	421.096	-0.0814581	-0.0815983	0.00625481	2	-5.28166e-06	5.10382e-07
2	1	0	1	1	421.099	-0.0782593	-0.0784046	0.00619818	2	-5.26171e-06	4.85966e-07
2	1	0	0	1	421.102	-0.0748606	-0.0749952	0.00618399	2	-5.24059e-06	4.6377e-07
2	1	0	1	1	421.106	-0.0714619	-0.0715894	0.00612979	2	-5.21963e-06	4.38828e-07
2	1	0	1	1	421.109	-0.0682631	-0.0683911	0.00609917	2	-5.20003e-06	4.17129e-07
2	1	0	0	1	421.112	-0.0648644	-0.0649886	0.0060295	2	-5.17937e-06	3.91849e-07
2	1	0	1	1	421.116	-0.0614657	-0.0616085	0.00597144	2	-5.15892e-06	3.67892e-07
2	1	0	1	1	421.119	-0.0582669	-0.0584199	0.00591122	2	-5.13987e-06	3.45333e-07
2	1	0	0	1	421.122	-0.0548682	-0.0550215	0.0058419	2	-5.11984e-06	3.2143e-07
2	1	0	1	1	421.126	-0.0514695	-0.0516211	0.00576531	2	-5.10006e-06	2.97611e-07
2	1	0	1	1	421.129	-0.0482707	-0.0484181	0.00571424	2	-5.08165e-06	2.76673e-07
2	1	0	0	1	421.132	-0.044872	-0.0450256	0.00569195	2	-5.06221e-06	2.56284e-07
2	1	0	1	1	421.136	-0.0414733	-0.0416093	0.00562322	2	-5.04293e-06	2.33978e-07
2	1	0	1	1	421.139	-0.0382745	-0.0384031	0.00558946	2	-5.02495e-06	2.14652e-07
2	1	0	0	1	421.142	-0.0348758	-0.0350143	0.0055569	2	-5.00594e-06	1.94571e-07
2	1	0	1	1	421.146	-0.0314771	-0.0316092	0.00549471	2	-4.98712e-06	1.73683e-07
2	1	0	1	1	421.149	-0.0282783	-0.0283977	0.00546385	2	-4.96955e-06	1.5516e-07
2	1	0	0	1	421.152	-0.0248796	-0.0249937	0.00541614	2	-4.95101e-06	1.35369e-07
2	1	0	1	1	421.156	-0.0214809	-0.0215988	0.00536114	2	-4.93266e-06	1.15794e-07
2	1	0	1	1	421.159	-0.0182821	-0.0184132	0.00531673	2	-4.91555e-06	9.78982e-08
2	1	0	0	1	421.162	-0.0148834	-0.0150141	0.00530161	2	-4.89745e-06	7.95987e-08
2	1	0	1	1	421.166	-0.0114847	-0.0116158	0.00524756	2	-4.87947e-06	6.09546e-08
2	1	0	1	1	421.169	-0.00828596	-0.0084246	0.00520065	2	-4.86272e-06	4.38134e-08
2	1	0	0	1	421.172	-0.00488725	-0.00502405	0.0051973	2	-4.845e-06	2.61115e-08
2	1	0	1	1	421.176	-0.00148111	-0.00163482	0.00515175	2	-4.82736e-06	8.42217e-09
2	1	0	1	1	421.179	0.00171023	0.00157547	0.00511982	2	-4.81089e-06	8.06612e-09
2	1	0	0	1	421.182	0.00510894	0.00499942	0.00509563	2	-4.79348e-06	2.54752e-08
2	1	0	1	1	421.186	0.00850764	0.0084048	0.00506067	2	-4.77618e-06	4.25339e-08
2	1	0	1	1	421.189	0.0117064	0.0116006	0.00503678	2	-4.75998e-06	5.84297e-08
2	1	0	0	1	421.192	0.0151051	0.0150366	0.00500612	2	-4.74285e-06	7.52752e-08
2	1	0	1	1	421.196	0.0185038	0.0183947	0.00495248	2	-4.72588e-06	9.10994e-08
2	1	0	1	1	421.199	0.0217026	0.0215985	0.00495227	2	-4.71e-06	1.06962e-07
2	1	0	0	1	421.202	0.0251013	0.0250034	0.00491811	2	-4.69316e-06	1.22969e-07
2	1	0	1	1	421.206	0.0285	0.0284004	0.00489335	2	-4.67644e-06	1.38973e-07
2	1	0	1	1	421.209	0.0316988	0.0315806	0.00488965	2	-4.66075e-06	1.54418e-07
2	1	0	0	1	421.212	0.0350975	0.0350115	0.00487543	2	-4.64408e-06	1.70696e-07
2	1	0	1	1	421.216	0.0384962	0.0384011	0.00483717	2	-4.62753e-06	1.85753e-07
2	1	0	1	1	421.219	0.041695	0.0415732	0.00483411	2	-4.61202e-06	2.0097e-07
2	1	0	0	1	421.222	0.0450937	0.0450053	0.00480754	2	-4.59558e-06	2.16365e-07
2	1	0	1	1	421.226	0.0484924	0.0484098	0.00480668	2	-4.5792e-06	2.3269e-07
2	1	0	1	1	421.229	0.0516912	0.0516212	0.00477552	2	-4.56383e-06	2.46518e-07
2	1	0	0	1	421.232	0.0550899	0.0550121	0.00476784	2	-4.54755e-06	2.62289e-07
2	1	0	1	1	421.236	0.0584886	0.0584392	0.00476285	2	-4.5313e-06	2.78337e-07
2	1	0	1	1	421.239	0.0616873	0.0616055	0.00474223	2	-4.51605e-06	2.92147e-07
2	1	0	0	1	421.242	0.065086	0.0650092	0.00473352	2	-4.49988e-06	3.07723e-07
2	1	0	1	1	421.246	0.0684847	0.0684058	0.00470145	2	-4.4838e-06	3.21607e-07
2	1	0	1	1	421.249	0.0716835	0.0715873	0.00468996	2	-4.46873e-06	3.35741e-07
2	1	0	0	1	421.252	0.0750822	0.0749718	0.00467463	2	-4.45275e-06	3.50466e-07
2	1	0	1	1	421.256	0.0784809	0.0784001	0.00467205	2	-4.43682e-06	3.66289e-07
2	1	0	1	1	421.259	0.0816797	0.0816004	0.00466826	2	-4.42183e-06	3.80932e-07
2	1	0	0	1	421.262	0.0850784	0.0849762	0.00465366	2	-4.40593e-06	3.9545e-07
2	1	0	1	1	421.266	0.0884343	0.0883348	0.00465443	2	-4.39053e-06	4.11148e-07
2	1	0	1	1	421.269	0.0917425	0.0916484	0.00462632	2	-4.37517e-06	4.23995e-07
2	1	0	0	1	421.272	0.0951412	0.0950317	0.00462964	2	-4.35939e-06	4.39963e-07
2	1	0	0	1	421.275	0.0982401	0.0981575	0.00462982	2	-4.345e-06	4.54451e-07
2	1	0	1	1	421.277	0.0999061	0.0997726	0.00464548	2	-4.33757e-06	4.63492e-07
2	0	0	0	1	421.277	0.100239	0.100188	0.00464327	2	-4.3357e-06	4.65202e-07
2	0	0	1	1	421.279	0.0984733	0.0984055	0.00354257	2	-4.3296e-06	3.48609e-07
2	0	0	0	1	421.282	0.0950746	0.0949416	0.0023662	2	-4.3198e-06	2.24651e-07
2	0	0	1	1	421.286	0.0916759	0.0915458	0.00181963	2	-4.31281e-06	1.66579e-07
2	0	0	1	1	421.289	0.0884549	0.088306	0.00150335	2	-4.30758e-06	1.32755e-07
2	0	0	0	1	421.292	0.0850118	0.084876	0.00126377	2	-4.30295e-06	1.07264e-07
2	0	0	0	1	421.296	0.081813	0.0816784	0.00109867	2	-4.29924e-06	8.97372e-08
2	0	0	1	1	421.299	0.0784143	0.0782738	0.000943345	2	-4.29584e-06	7.38391e-08
2	0	0	0	1	421.302	0.0750156	0.0748793	0.000805652	2	-4.29292e-06	6.03267e-08
2	0	0	0	1	421.306	0.0718168	0.0716764	0.000691625	2	-4.29058e-06	4.95732e-08
2	0	0	1	1	421.309	0.0684181	0.068297	0.000583396	2	-4.28848e-06	3.98441e-08
2	0	0	0	1	421.312	0.0650194	0.064878	0.000480905	2	-4.28673e-06	3.12002e-08
2	0	0	0	1	421.316	0.0618206	0.0616983	0.000391079	2	-4.28539e-06	2.41289e-08
2	0	0	1	1	421.319	0.0584219	0.0583012	0.000297447	2	-4.28429e-06	1.73415e-08
2	0	0	0	1	421.322	0.0550232	0.0549157	0.000206518	2	-4.28348e-06	1.13411e-08
2	0	0	0	1	421.326	0.0518244	0.0516971	0.000125132	2	-4.283e-06	6.46894e-09
2	0	0	1	1	421.329	0.0484257	0.0482739	4.88503e-05	2	-4.28277e-06	2.3582e-09
2	0	0	0	1	421.332	0.045027	0.0448818	-3.22818e-05	2	-4.2828e-06	1.44886e-09
2	0	0	0	1	421.336	0.0418283	0.0416788	-0.000103762	2	-4.28306e-06	4.32467e-09
2	0	0	1	1	421.339	0.0384296	0.0382685	-0.000169208	2	-4.28359e-06	6.47533e-09
2	0	0	0	1	421.342	0.0350308	0.0348769	-0.000239559	2	-4.28433e-06	8.35507e-09
2	0	0	0	1	421.346	0.0318321	0.0316611	-0.000305621	2	-4.28526e-06	9.67632e-09
2	0	0	1	1	421.349	0.0284334	0.0282713	-0.000368412	2	-4.28647e-06	1.04155e-08
2	0	0	0	1	421.352	0.0250347	0.0248782	-0.000434206	2	-4.28788e-06	1.08023e-08
2	0	0	0	1	421.356	0.0218359	0.0216737	-0.000490841	2	-4.28941e-06	1.06383e-08
2	0	0	1	1	421.359	0.0184372	0.0182772	-0.000550597	2	-4.29124e-06	1.00634e-08
2	0	0	0	1	421.362	0.0150385	0.0149021	-0.000607522	2	-4.29326e-06	9.05334e-09
2	0	0	0	1	421.366	0.0118397	0.0116731	-0.000672124	2	-4.29535e-06	7.84576e-09
2	0	0	1	1	421.369	0.008441	0.00826389	-0.000727976	2	-4.29779e-06	6.01591e-09
2	0	0	0	1	421.372	0.00504229	0.00488	-0.000782037	2	-4.30041e-06	3.81634e-09
2	0	0	0	1	421.376	0.00184351	0.00163919	-0.000843606	2	-4.30306e-06	1.38283e-09
2	0	0	1	1	421.379	-0.00155519	-0.00176492	-0.000896553	2	-4.30608e-06	1.58235e-09
2	0	0	0	1	421.382	-0.00495389	-0.00514093	-0.000945719	2	-4.30926e-06	4.86187e-09
2	0	0	0	1	421.386	-0.00815267	-0.00835173	-0.000998211	2	-4.31242e-06	8.33678e-09
2	0	0	1	1	421.389	-0.0115514	-0.0117627	-0.00105311	2	-4.31597e-06	1.23875e-08
2	0	0	0	1	421.392	-0.0149501	-0.0151446	-0.00110272	2	-4.31968e-06	1.67002e-08
2	0	0	0	1	421.396	-0.0181489	-0.0183513	-0.00115173	2	-4.32334e-06	2.11358e-08
2	0	0	1	1	421.399	-0.0215476	-0.0217326	-0.00120146	2	-4.3274e-06	2.6111e-08
2	0	0	0	1	421.402	-0.0249463	-0.0251216	-0.00125638	2	-4.33162e-06	3.15622e-08
2	0	0	0	1	421.406	-0.0281451	-0.0283295	-0.00130424	2	-4.33577e-06	3.69484e-08
2	0	0	1	1	421.409	-0.0315438	-0.0317388	-0.00135724	2	-4.34036e-06	4.30771e-08
2	0	0	0	1	421.412	-0.0349425	-0.0351406	-0.00140863	2	-4.34511e-06	4.95003e-08
2	0	0	0	1	421.416	-0.0381412	-0.0383242	-0.0014513	2	-4.34973e-06	5.562e-08
2	0	0	1	1	421.419	-0.0415399	-0.0417459	-0.00150783	2	-4.35482e-06	6.29457e-08
2	0	0	0	1	421.422	-0.0449386	-0.0451163	-0.00155682	2	-4.36008e-06	7.02379e-08
2	0	0	0	1	421.426	-0.0481374	-0.0483385	-0.00160027	2	-4.36518e-06	7.73545e-08
2	0	0	1	1	421.429	-0.0515361	-0.0517481	-0.00165382	2	-4.37077e-06	8.5582e-08
2	0	0	0	1	421.432	-0.0549348	-0.0551574	-0.00170561	2	-4.37653e-06	9.40768e-08
2	0	0	0	1	421.436	-0.0581336	-0.058364	-0.00175295	2	-4.38211e-06	1.02309e-07
2	0	0	1	1	421.439	-0.0615323	-0.061739	-0.00180007	2	-4.38821e-06	1.11135e-07
2	0	0	0	1	421.442	-0.064931	-0.0651238	-0.00184568	2	-4.39446e-06	1.20198e-07
2	0	0	0	1	421.446	-0.0681298	-0.0683377	-0.00190411	2	-4.4005e-06	1.30122e-07
2	0	0	1	1	421.449	-0.0715285	-0.0717341	-0.0019528	2	-4.40712e-06	1.40082e-07
2	0	0	0	1	421.452	-0.0749272	-0.0751418	-0.0020074	2	-4.4139e-06	1.5084e-07
2	0	0	0	1	421.456	-0.078126	-0.0783302	-0.00205356	2	-4.42045e-06	1.60856e-07
2	0	0	1	1	421.459	-0.0815247	-0.0817305	-0.00211461	2	-4.42759e-06	1.72828e-07
2	0	0	0	1	421.462	-0.0849234	-0.0851297	-0.00216559	2	-4.43492e-06	1.84356e-07
2	0	0	0	1	421.466	-0.0881888	-0.0883576	-0.00223325	2	-4.44201e-06	1.97324e-07
2	0	0	1	1	421.469	-0.0915875	-0.091772	-0.00228105	2	-4.44974e-06	2.09337e-07
2	0	0	1	1	421.472	-0.0947863	-0.0949754	-0.0023347	2	-4.45717e-06	2.21739e-07
2	0	0	0	1	421.476	-0.098185	-0.0983759	-0.00239688	2	-4.46527e-06	2.35795e-07
2	0	0	1	1	421.479	-0.101584	-0.101758	-0.00245864	2	-4.47357e-06	2.50186e-07
2	0	0	1	1	421.482	-0.104783	-0.104951	-0.00251303	2	-4.48158e-06	2.63746e-07
2	0	0	0	1	421.486	-0.108181	-0.108353	-0.00258456	2	-4.49031e-06	2.80046e-07
2	0	0	1	1	421.489	-0.11158	-0.111753	-0.0026448	2	-4.49925e-06	2.95565e-07
2	0	0	1	1	421.492	-0.114779	-0.114954	-0.00270652	2	-4.50786e-06	3.11124e-07
2	0	0	0	1	421.496	-0.118177	-0.118356	-0.00278816	2	-4.51726e-06	3.29995e-07
2	0	0	1	1	421.499	-0.121576	-0.121743	-0.00285873	2	-4.52692e-06	3.48029e-07
2	0	0	1	1	421.502	-0.124775	-0.124951	-0.00292889	2	-4.53622e-06	3.65968e-07
2	0	0	0	1	421.506	-0.128174	-0.128377	-0.00301807	2	-4.5464e-06	3.8745e-07
2	0	0	1	1	421.509	-0.131572	-0.131769	-0.00309934	2	-4.55685e-06	4.08398e-07
2	0	0	1	1	421.512	-0.134771	-0.134978	-0.00318525	2	-4.56696e-06	4.29937e-07
2	0	0	0	1	421.516	-0.13817	-0.138399	-0.00326699	2	-4.57799e-06	4.52148e-07
2	0	0	1	1	421.519	-0.141568	-0.141771	-0.00335151	2	-4.5893e-06	4.75146e-07
2	0	0	1	1	421.522	-0.144767	-0.144973	-0.00344244	2	-4.60022e-06	4.99061e-07
2	0	0	0	1	421.526	-0.148166	-0.148367	-0.00354678	2	-4.61217e-06	5.26225e-07
2	0	0	1	1	421.529	-0.151565	-0.151784	-0.00365311	2	-4.62446e-06	5.54485e-07
2	0	0	1	1	421.532	-0.154763	-0.154965	-0.00375804	2	-4.63637e-06	5.82363e-07
2	0	0	0	1	421.536	-0.158162	-0.158361	-0.00388363	2	-4.64943e-06	6.15015e-07
2	0	0	1	1	421.539	-0.161561	-0.161761	-0.00400059	2	-4.66289e-06	6.47141e-07
2	0	0	1	1	421.542	-0.16476	-0.164965	-0.00412778	2	-4.67595e-06	6.80937e-07
2	0	0	0	1	421.546	-0.168158	-0.168391	-0.00426529	2	-4.69029e-06	7.18234e-07
2	0	0	1	1	421.549	-0.171557	-0.171782	-0.00440315	2	-4.70509e-06	7.56382e-07
2	0	0	1	1	421.552	-0.174756	-0.174961	-0.00454059	2	-4.71945e-06	7.94424e-07
2	0	0	0	1	421.556	-0.178155	-0.178392	-0.00468836	2	-4.73521e-06	8.36364e-07
2	0	0	1	1	421.559	-0.181553	-0.18179	-0.00485207	2	-4.75149e-06	8.82059e-07
2	0	0	1	1	421.562	-0.184752	-0.184986	-0.00500707	2	-4.76732e-06	9.26239e-07
2	0	0	0	1	421.566	-0.188151	-0.18838	-0.00516488	2	-4.78469e-06	9.7296e-07
2	0	0	1	1	421.569	-0.191549	-0.191775	-0.00533471	2	-4.80261e-06	1.02306e-06
2	0	0	1	1	421.572	-0.194748	-0.194974	-0.00550758	2	-4.82001e-06	1.07383e-06
2	0	0	0	1	421.576	-0.198147	-0.198345	-0.00568606	2	-4.83911e-06	1.1278e-06
2	0	0	1	1	421.579	-0.201546	-0.201763	-0.0058738	2	-4.85882e-06	1.18511e-06
2	0	0	1	1	421.582	-0.204744	-0.204966	-0.00606382	2	-4.87798e-06	1.24288e-06
2	0	0	0	1	421.586	-0.208143	-0.208348	-0.00625659	2	-4.899e-06	1.30355e-06
2	0	0	1	1	421.589	-0.211542	-0.211766	-0.00646517	2	-4.92069e-06	1.3691e-06
2	0	0	1	1	421.592	-0.214741	-0.214983	-0.00665517	2	-4.94174e-06	1.43075e-06
2	0	0	0	1	421.596	-0.218139	-0.218371	-0.00683762	2	-4.96475e-06	1.49314e-06
2	0	0	1	1	421.599	-0.221538	-0.221767	-0.00702813	2	-4.98839e-06	1.5586e-06
2	0	0	1	1	421.602	-0.224737	-0.224975	-0.00721357	2	-5.01123e-06	1.62287e-06
2	0	0	0	1	421.606	-0.228135	-0.228374	-0.00741735	2	-5.03618e-06	1.69393e-06
2	0	0	1	1	421.609	-0.231534	-0.231775	-0.00762788	2	-5.06183e-06	1.76795e-06
2	0	0	1	1	421.612	-0.234733	-0.234953	-0.00780225	2	-5.08657e-06	1.83316e-06
2	0	0	0	1	421.616	-0.238132	-0.238358	-0.00798641	2	-5.11349e-06	1.90362e-06
2	0	0	1	1	421.619	-0.24153	-0.241756	-0.00819742	2	-5.14107e-06	1.98178e-06
2	0	0	1	1	421.622	-0.244729	-0.244967	-0.00835364	2	-5.16761e-06	2.04637e-06
2	0	0	0	1	421.626	-0.248128	-0.248368	-0.00853552	2	-5.19638e-06	2.11995e-06
2	0	0	1	1	421.629	-0.251527	-0.25177	-0.00871026	2	-5.22576e-06	2.19298e-06
2	0	0	1	1	421.632	-0.254725	-0.254969	-0.00886075	2	-5.25393e-06	2.25922e-06
2	0	0	0	1	421.636	-0.258124	-0.258352	-0.00903567	2	-5.28443e-06	2.33439e-06
2	0	0	1	1	421.639	-0.261456	-0.261664	-0.00917874	2	-5.31453e-06	2.40175e-06
2	0	0	1	1	421.642	-0.264788	-0.265002	-0.00931093	2	-5.34512e-06	2.46742e-06
2	0	0	0	1	421.646	-0.268187	-0.268411	-0.00946448	2	-5.37711e-06	2.54037e-06
2	0	0	0	1	421.649	-0.271386	-0.271606	-0.00959515	2	-5.40766e-06	2.6061e-06
2	0	0	1	1	421.652	-0.274784	-0.275005	-0.00972881	2	-5.44058e-06	2.67547e-06
2	0	0	0	1	421.656	-0.278183	-0.278385	-0.00982742	2	-5.47388e-06	2.73581e-06
2	0	0	0	1	421.659	-0.281382	-0.2816	-0.00992365	2	-5.50554e-06	2.7945e-06
2	0	0	1	1	421.662	-0.284781	-0.284987	-0.0100654	2	-5.53957e-06	2.8685e-06
2	0	0	0	1	421.666	-0.288179	-0.288396	-0.0101781	2	-5.57404e-06	2.93532e-06
2	0	0	0	1	421.669	-0.291378	-0.291598	-0.0102425	2	-5.60676e-06	2.98669e-06
2	0	0	1	1	421.702	-0.324765	-0.324931	-0.0104982	2	-5.94975e-06	3.41118e-06
2	0	0	0	1	421.706	-0.328164	-0.328348	-0.0104613	2	-5.98545e-06	3.43494e-06
2	0	0	0	1	421.709	-0.331363	-0.331553	-0.0104458	2	-6.01899e-06	3.46334e-06
2	0	0	1	1	421.712	-0.334762	-0.334966	-0.0104049	2	-6.05453e-06	3.48529e-06
2	0	0	0	1	421.716	-0.33816	-0.338354	-0.010402	2	-6.08999e-06	3.51957e-06
2	0	0	0	1	421.719	-0.341359	-0.341578	-0.0103404	2	-6.12325e-06	3.53205e-06
2	0	0	1	1	421.722	-0.344758	-0.34498	-0.0102938	2	-6.15841e-06	3.55116e-06
2	0	0	0	1	421.726	-0.348156	-0.348369	-0.010228	2	-6.1934e-06	3.56311e-06
2	0	0	0	1	421.729	-0.351355	-0.351587	-0.0102274	2	-6.22621e-06	3.59583e-06
2	0	0	1	1	421.732	-0.354754	-0.354996	-0.010172	2	-6.26098e-06	3.61102e-06
2	0	0	0	1	421.736	-0.358153	-0.358385	-0.0100983	2	-6.2955e-06	3.61909e-06
2	0	0	0	1	421.739	-0.361351	-0.361569	-0.0100599	2	-6.32783e-06	3.63736e-06
2	0	0	1	1	421.742	-0.36475	-0.364952	-0.00999289	2	-6.36202e-06	3.64693e-06
2	0	0	0	1	421.746	-0.368149	-0.368347	-0.00992509	2	-6.39595e-06	3.65588e-06
2	0	0	0	1	421.749	-0.371348	-0.371557	-0.00986118	2	-6.42769e-06	3.66399e-06
2	0	0	1	1	421.752	-0.374746	-0.37496	-0.00981456	2	-6.46124e-06	3.68006e-06
2	0	0	0	1	421.756	-0.378145	-0.378343	-0.00972777	2	-6.49454e-06	3.68043e-06
2	0	0	0	1	421.759	-0.381344	-0.381574	-0.0097069	2	-6.52572e-06	3.7039e-06
2	0	0	1	1	421.762	-0.384742	-0.384991	-0.00965905	2	-6.55873e-06	3.71864e-06
2	0	0	0	1	421.766	-0.388141	-0.388373	-0.00961655	2	-6.59158e-06	3.73481e-06
2	0	0	0	1	421.769	-0.39134	-0.39157	-0.00955677	2	-6.62233e-06	3.74215e-06
2	0	0	1	1	421.772	-0.394739	-0.394977	-0.00953212	2	-6.65487e-06	3.76497e-06
2	0	0	0	1	421.776	-0.398137	-0.398383	-0.00948563	2	-6.68728e-06	3.77891e-06
2	0	0	0	1	421.779	-0.401336	-0.40157	-0.00945274	2	-6.71765e-06	3.79594e-06
2	0	0	1	1	421.782	-0.404735	-0.404954	-0.00942379	2	-6.74985e-06	3.8162e-06
2	0	0	0	1	421.786	-0.408134	-0.408338	-0.00936467	2	-6.78187e-06	3.82395e-06
2	0	0	0	1	421.789	-0.411332	-0.411559	-0.00934802	2	-6.8119e-06	3.84726e-06
2	0	0	1	1	421.792	-0.414731	-0.414955	-0.00929602	2	-6.84368e-06	3.85743e-06
2	0	0	0	1	421.796	-0.41813	-0.418354	-0.00926345	2	-6.87531e-06	3.8754e-06
2	0	0	0	1	421.799	-0.421328	-0.421554	-0.00920654	2	-6.90494e-06	3.88105e-06
2	0	0	1	1	421.802	-0.424727	-0.424952	-0.00920925	2	-6.93634e-06	3.91349e-06
2	0	0	0	1	421.806	-0.428126	-0.428335	-0.00919805	2	-6.9677e-06	3.93984e-06
2	0	0	0	1	421.809	-0.431325	-0.431545	-0.00918512	2	-6.99719e-06	3.9638e-06
2	0	0	1	1	421.812	-0.434723	-0.434945	-0.00915324	2	-7.02845e-06	3.98115e-06
2	0	0	0	1	421.816	-0.438079	-0.438292	-0.00914256	2	-7.05871e-06	4.00711e-06
2	0	0	0	1	421.819	-0.441388	-0.441612	-0.00912065	2	-7.08893e-06	4.02779e-06
2	0	0	1	1	421.822	-0.444786	-0.44502	-0.00910399	2	-7.12e-06	4.05146e-06
2	0	0	1	1	421.825	-0.447985	-0.448184	-0.00909258	2	-7.1492e-06	4.07515e-06
2	0	0	0	1	421.829	-0.451384	-0.451573	-0.00908235	2	-7.1802e-06	4.10134e-06
2	0	0	1	1	421.832	-0.454782	-0.454968	-0.00905969	2	-7.21111e-06	4.12187e-06
2	0	0	1	1	421.835	-0.457981	-0.45819	-0.00905388	2	-7.24018e-06	4.1484e-06
2	0	0	0	1	421.839	-0.46138	-0.461587	-0.00906914	2	-7.27109e-06	4.1862e-06
2	0	0	1	1	421.842	-0.464779	-0.464989	-0.00905645	2	-7.30198e-06	4.21115e-06
2	0	0	1	1	421.845	-0.467977	-0.468205	-0.0090554	2	-7.33104e-06	4.23978e-06
2	0	0	0	1	421.849	-0.471376	-0.471599	-0.00907641	2	-7.36197e-06	4.28042e-06
2	0	0	1	1	421.852	-0.474775	-0.474991	-0.0090444	2	-7.39286e-06	4.29601e-06
2	0	0	1	1	421.855	-0.477974	-0.478199	-0.0090662	2	-7.42192e-06	4.33545e-06
2	0	0	0	1	421.859	-0.481372	-0.481611	-0.00904533	2	-7.4528e-06	4.35633e-06
2	0	0	1	1	421.862	-0.484771	-0.484993	-0.00906366	2	-7.48367e-06	4.39581e-06
2	0	0	1	1	421.865	-0.48797	-0.488202	-0.00904294	2	-7.51273e-06	4.41478e-06
2	0	0	0	1	421.869	-0.491368	-0.491599	-0.00905177	2	-7.54359e-06	4.44984e-06
2	0	0	1	1	421.872	-0.494767	-0.494986	-0.00905555	2	-7.57445e-06	4.48237e-06
2	0	0	1	1	421.875	-0.497966	-0.498197	-0.00907682	2	-7.60354e-06	4.52205e-06
2	0	0	0	1	421.879	-0.501365	-0.501587	-0.00909099	2	-7.63452e-06	4.55992e-06
2	0	0	1	1	421.882	-0.504763	-0.504997	-0.00908989	2	-7.66552e-06	4.59037e-06
2	0	0	1	1	421.885	-0.507962	-0.5082	-0.00909749	2	-7.6947e-06	4.62334e-06
2	0	0	0	1	421.889	-0.511361	-0.511578	-0.00911038	2	-7.72575e-06	4.66067e-06
2	0	0	1	1	421.892	-0.51476	-0.514985	-0.0091522	2	-7.75688e-06	4.71324e-06
2	0	0	1	1	421.895	-0.517958	-0.51818	-0.00915081	2	-7.78625e-06	4.74176e-06
2	0	0	0	1	421.899	-0.521357	-0.521576	-0.00917805	2	-7.81751e-06	4.78705e-06
2	0	0	1	1	421.902	-0.524756	-0.524985	-0.00919363	2	-7.84883e-06	4.82652e-06
2	0	0	1	1	421.905	-0.527955	-0.528179	-0.00920056	2	-7.87833e-06	4.85954e-06
2	0	0	0	1	421.909	-0.531353	-0.531561	-0.00922741	2	-7.90976e-06	4.90493e-06
2	0	0	1	1	421.912	-0.534752	-0.534972	-0.00924369	2	-7.94123e-06	4.94511e-06
2	0	0	1	1	421.915	-0.537951	-0.538163	-0.00927579	2	-7.97095e-06	4.99189e-06
2	0	0	0	1	421.919	-0.541349	-0.541576	-0.00933428	2	-8.00267e-06	5.05522e-06
2	0	0	1	1	421.922	-0.544748	-0.544956	-0.00936443	2	-8.03455e-06	5.1032e-06
2	0	0	1	1	421.925	-0.547947	-0.548158	-0.00937477	2	-8.06461e-06	5.13885e-06
2	0	0	0	1	421.929	-0.551346	-0.551563	-0.00939329	2	-8.09661e-06	5.181e-06
2	0	0	1	1	421.932	-0.554744	-0.554987	-0.00946203	2	-8.12876e-06	5.25131e-06
2	0	0	1	1	421.935	-0.557943	-0.558176	-0.00948083	2	-8.15915e-06	5.29197e-06
2	0	0	0	1	421.939	-0.561342	-0.561571	-0.00951801	2	-8.19155e-06	5.34503e-06
2	0	0	1	1	421.942	-0.56474	-0.564976	-0.00958793	2	-8.22413e-06	5.41695e-06
2	0	0	1	1	421.945	-0.567939	-0.56819	-0.00964228	2	-8.25499e-06	5.47865e-06
2	0	0	0	1	421.949	-0.571338	-0.571576	-0.00968323	2	-8.28794e-06	5.5347e-06
2	0	0	1	1	421.952	-0.574737	-0.574975	-0.00972086	2	-8.32101e-06	5.58925e-06
2	0	0	1	1	421.955	-0.577936	-0.578159	-0.00975591	2	-8.35226e-06	5.64046e-06
2	0	0	0	1	421.959	-0.581334	-0.581555	-0.00981324	2	-8.38563e-06	5.70694e-06
2	0	0	1	1	421.962	-0.584733	-0.58495	-0.00989397	2	-8.41923e-06	5.78747e-06
2	0	0	1	1	421.965	-0.587932	-0.588154	-0.00996103	2	-8.45108e-06	5.85862e-06
2	0	0	0	1	421.969	-0.59133	-0.591546	-0.0100222	2	-8.48516e-06	5.92861e-06
2	0	0	1	1	421.972	-0.594729	-0.59493	-0.0101029	2	-8.51946e-06	6.01051e-06
2	0	0	1	1	421.975	-0.597928	-0.598153	-0.0101659	2	-8.55198e-06	6.08075e-06
2	0	0	0	1	421.977	-0.599827	-0.600054	-0.0102217	2	-8.57137e-06	6.1336e-06