File: TAP_Report/Data/MB_PB/100 uM MB 10mM PB  second ito_02_CV_C01_2.mpt
EC-Lab ASCII FILE
Nb header lines : 53

Cyclic Voltammetry

Run on channel : 1 (SN 0696)
User :
Electrode connection : standard
Ewe ctrl range : min = -10.00 V, max = 10.00 V
Ewe,I filtering : 50 kHz
Channel : Grounded
Acquisition started on : 05/17/2017 12:39:23
Saved on :
	File : 100 uM MB 10mM PB  second ito_02_CV_C01.mpr
	Directory : \\userfs\st659\w2k\EC-Lab\Data\ITO Characterisation 17-5-17\
	Host : 144.32.136.43
Device : SP-300 (SN 0182)
Address : USB
EC-Lab for windows v10.44 (software)
Internet server v10.44 (firmware)
Command interpretor v10.44 (firmware)
Electrode material :
Initial state :
Electrolyte :
Comments :
Cable : standard
Electrode surface area : 0.001 cm²
Characteristic mass : 0.001 g
Equivalent Weight : 0.000 g/eq.
Density : 0.000 g/cm3
Ei (V)              0.000
vs.                 Eoc
dE/dt               50.000
dE/dt unit          mV/s
E1 (V)              0.100
vs.                 Ref
Step percent        50
N                   10
E range min (V)     -10.000
E range max (V)     10.000
I Range             Auto
I Range min         Unset
I Range max         Unset
I Range init        Unset
Bandwidth           8
E2 (V)              -0.600
vs.                 Ref
nc cycles           2
Reverse Scan        1
Ef (V)              0.000
vs.                 Eoc

mode	ox/red	error	control changes	counter inc.	time/s	control/V	Ewe/V	<I>/mA	cycle number	(Q-Qo)/C	P/W
2	1	0	1	1	264.468	-0.599827	-0.600039	-0.0048387	2	-3.97112e-05	2.90341e-06
2	1	0	0	1	264.505	-0.597995	-0.598216	-0.00464908	2	-3.98806e-05	2.78115e-06
2	1	0	1	1	264.572	-0.594665	-0.594926	-0.00448836	2	-4.01818e-05	2.67024e-06
2	1	0	0	1	264.638	-0.591334	-0.591586	-0.00435231	2	-4.04733e-05	2.57477e-06
2	1	0	0	1	264.705	-0.587995	-0.588237	-0.00423334	2	-4.07572e-05	2.49021e-06
2	1	0	1	1	264.772	-0.584663	-0.584911	-0.00412564	2	-4.10327e-05	2.41313e-06
2	1	0	0	1	264.838	-0.581334	-0.58157	-0.00402444	2	-4.13013e-05	2.34049e-06
2	1	0	1	1	264.905	-0.578005	-0.578248	-0.00393046	2	-4.15634e-05	2.27278e-06
2	1	0	0	1	264.971	-0.574673	-0.574927	-0.00384417	2	-4.18195e-05	2.21012e-06
2	1	0	0	1	265.038	-0.571335	-0.571591	-0.00376107	2	-4.20707e-05	2.14979e-06
2	1	0	1	1	265.105	-0.568004	-0.568249	-0.00368322	2	-4.23159e-05	2.09299e-06
2	1	0	0	1	265.171	-0.564674	-0.564922	-0.00360976	2	-4.2556e-05	2.03923e-06
2	1	0	1	1	265.238	-0.561345	-0.561599	-0.00353925	2	-4.27913e-05	1.98764e-06
2	1	0	1	1	265.305	-0.558009	-0.55826	-0.00347265	2	-4.30223e-05	1.93864e-06
2	1	0	0	1	265.371	-0.554674	-0.554936	-0.00340724	2	-4.3249e-05	1.8908e-06
2	1	0	1	1	265.438	-0.551344	-0.551586	-0.00334379	2	-4.34711e-05	1.84439e-06
2	1	0	0	1	265.505	-0.548014	-0.548244	-0.00328719	2	-4.36892e-05	1.80218e-06
2	1	0	1	1	265.571	-0.544685	-0.544901	-0.00322899	2	-4.39034e-05	1.75948e-06
2	1	0	1	1	265.638	-0.541348	-0.541566	-0.00317359	2	-4.41142e-05	1.71871e-06
2	1	0	0	1	265.705	-0.538014	-0.538234	-0.00312259	2	-4.43215e-05	1.68068e-06
2	1	0	1	1	265.771	-0.534685	-0.534914	-0.00307268	2	-4.45251e-05	1.64362e-06
2	1	0	0	1	265.838	-0.531353	-0.531593	-0.00302606	2	-4.47255e-05	1.60863e-06
2	1	0	1	1	265.904	-0.528024	-0.528255	-0.00297701	2	-4.49227e-05	1.57262e-06
2	1	0	1	1	265.971	-0.524689	-0.524931	-0.00293094	2	-4.5117e-05	1.53854e-06
2	1	0	0	1	266.038	-0.521354	-0.521575	-0.00289038	2	-4.53085e-05	1.50755e-06
2	1	0	1	1	266.104	-0.518025	-0.518253	-0.00284651	2	-4.54968e-05	1.47521e-06
2	1	0	0	1	266.171	-0.514694	-0.514934	-0.00280599	2	-4.56824e-05	1.4449e-06
2	1	0	1	1	266.238	-0.511364	-0.511591	-0.00276676	2	-4.58652e-05	1.41545e-06
2	1	0	1	1	266.304	-0.50803	-0.50827	-0.00272734	2	-4.60457e-05	1.38623e-06
2	1	0	0	1	266.371	-0.504693	-0.504932	-0.00269039	2	-4.62237e-05	1.35846e-06
2	1	0	1	1	266.438	-0.501365	-0.501616	-0.0026542	2	-4.6399e-05	1.33139e-06
2	1	0	0	1	266.504	-0.498035	-0.498256	-0.00261726	2	-4.65719e-05	1.30406e-06
2	1	0	1	1	266.571	-0.494704	-0.49492	-0.00258462	2	-4.67424e-05	1.27918e-06
2	1	0	1	1	266.638	-0.491365	-0.491589	-0.00255057	2	-4.69112e-05	1.25383e-06
2	1	0	0	1	266.704	-0.488033	-0.488276	-0.00251883	2	-4.70773e-05	1.22988e-06
2	1	0	1	1	266.771	-0.484704	-0.484936	-0.00248622	2	-4.72413e-05	1.20565e-06
2	1	0	0	1	266.837	-0.481374	-0.481617	-0.00245433	2	-4.74031e-05	1.18205e-06
2	1	0	1	1	266.904	-0.478044	-0.478272	-0.00242478	2	-4.75629e-05	1.1597e-06
2	1	0	1	1	266.971	-0.474705	-0.474946	-0.00239466	2	-4.77212e-05	1.13733e-06
2	1	0	0	1	267.037	-0.471374	-0.471614	-0.00236643	2	-4.78771e-05	1.11604e-06
2	1	0	1	1	267.104	-0.468044	-0.468286	-0.00233627	2	-4.8031e-05	1.09404e-06
2	1	0	0	1	267.171	-0.464715	-0.464914	-0.00230909	2	-4.8183e-05	1.07353e-06
2	1	0	1	1	267.237	-0.461383	-0.461608	-0.00228206	2	-4.83332e-05	1.05341e-06
2	1	0	1	1	267.304	-0.458045	-0.458249	-0.00225385	2	-4.8482e-05	1.03283e-06
2	1	0	0	1	267.371	-0.454715	-0.45492	-0.0022278	2	-4.86286e-05	1.01347e-06
2	1	0	1	1	267.437	-0.451384	-0.451598	-0.0022015	2	-4.87734e-05	9.94193e-07
2	1	0	0	1	267.504	-0.448055	-0.448273	-0.00217798	2	-4.89166e-05	9.76332e-07
2	1	0	0	1	267.57	-0.444718	-0.444942	-0.00215136	2	-4.90583e-05	9.57231e-07
2	1	0	1	1	267.637	-0.441384	-0.441623	-0.00212834	2	-4.91983e-05	9.39926e-07
2	1	0	0	1	267.704	-0.438054	-0.438283	-0.00210234	2	-4.93365e-05	9.21422e-07
2	1	0	1	1	267.77	-0.434723	-0.434958	-0.00207796	2	-4.9473e-05	9.03823e-07
2	1	0	0	1	267.837	-0.431395	-0.43163	-0.00205623	2	-4.9608e-05	8.87532e-07
2	1	0	0	1	267.904	-0.428059	-0.428307	-0.00203386	2	-4.97418e-05	8.71114e-07
2	1	0	1	1	267.97	-0.424724	-0.424972	-0.00201207	2	-4.9874e-05	8.55075e-07
2	1	0	0	1	268.037	-0.421395	-0.42163	-0.00199027	2	-5.00046e-05	8.39157e-07
2	1	0	1	1	268.104	-0.418063	-0.418307	-0.00196795	2	-5.01338e-05	8.23206e-07
2	1	0	0	1	268.17	-0.414734	-0.414976	-0.00194524	2	-5.02614e-05	8.07228e-07
2	1	0	0	1	268.237	-0.4114	-0.411616	-0.00192366	2	-5.03877e-05	7.9181e-07
2	1	0	1	1	268.304	-0.408064	-0.408291	-0.00190149	2	-5.05127e-05	7.76363e-07
2	1	0	0	1	268.37	-0.404735	-0.404959	-0.00188138	2	-5.0636e-05	7.61884e-07
2	1	0	1	1	268.437	-0.401404	-0.40165	-0.00185911	2	-5.07579e-05	7.46713e-07
2	1	0	0	1	268.503	-0.398074	-0.398329	-0.00183911	2	-5.08784e-05	7.32569e-07
2	1	0	0	1	268.57	-0.39474	-0.394992	-0.00181741	2	-5.09977e-05	7.1786e-07
2	1	0	1	1	268.637	-0.391403	-0.391658	-0.00179691	2	-5.11156e-05	7.03772e-07
2	1	0	0	1	268.703	-0.388074	-0.388315	-0.00177767	2	-5.1232e-05	6.90297e-07
2	1	0	1	1	268.77	-0.384745	-0.385004	-0.00175784	2	-5.13471e-05	6.76776e-07
2	1	0	0	1	268.837	-0.381414	-0.381654	-0.00173748	2	-5.14608e-05	6.63115e-07
2	1	0	0	1	268.903	-0.378075	-0.378306	-0.0017178	2	-5.15735e-05	6.49852e-07
2	1	0	1	1	268.97	-0.374743	-0.374974	-0.00169788	2	-5.16846e-05	6.36662e-07
2	1	0	0	1	269.037	-0.371414	-0.371647	-0.00167896	2	-5.17944e-05	6.23981e-07
2	1	0	1	1	269.103	-0.368085	-0.368295	-0.00165903	2	-5.19029e-05	6.11013e-07
2	1	0	0	1	269.17	-0.364753	-0.364986	-0.00164003	2	-5.20101e-05	5.98587e-07
2	1	0	0	1	269.237	-0.361415	-0.361646	-0.00162214	2	-5.21164e-05	5.86643e-07
2	1	0	1	1	269.303	-0.358084	-0.358324	-0.00160229	2	-5.22211e-05	5.74139e-07
2	1	0	0	1	269.37	-0.354754	-0.355014	-0.0015837	2	-5.23245e-05	5.62233e-07
2	1	0	1	1	269.436	-0.351425	-0.351666	-0.00156451	2	-5.24267e-05	5.50186e-07
2	1	0	0	1	269.503	-0.348093	-0.34834	-0.00154552	2	-5.25276e-05	5.38364e-07
2	1	0	0	1	269.57	-0.344754	-0.345004	-0.00152814	2	-5.26276e-05	5.27214e-07
2	1	0	1	1	269.636	-0.341425	-0.341665	-0.00150805	2	-5.2726e-05	5.15249e-07
2	1	0	0	1	269.703	-0.338094	-0.338312	-0.00148855	2	-5.28231e-05	5.03592e-07
2	1	0	1	1	269.77	-0.334765	-0.334981	-0.00147124	2	-5.2919e-05	4.9284e-07
2	1	0	1	1	269.836	-0.331428	-0.331656	-0.00145158	2	-5.30138e-05	4.81424e-07
2	1	0	0	1	269.903	-0.328094	-0.328294	-0.00143321	2	-5.31073e-05	4.70514e-07
2	1	0	1	1	269.97	-0.324765	-0.32495	-0.00141533	2	-5.31995e-05	4.59912e-07
2	1	0	0	1	270.036	-0.321433	-0.321631	-0.0013965	2	-5.32905e-05	4.49156e-07
2	1	0	1	1	270.103	-0.318105	-0.318328	-0.00137743	2	-5.33802e-05	4.38473e-07
2	1	0	1	1	270.169	-0.314769	-0.314983	-0.0013585	2	-5.34688e-05	4.27902e-07
2	1	0	0	1	270.236	-0.311434	-0.311669	-0.00133987	2	-5.35562e-05	4.17595e-07
2	1	0	1	1	270.303	-0.308105	-0.308329	-0.00131987	2	-5.36421e-05	4.06954e-07
2	1	0	0	1	270.369	-0.304774	-0.304988	-0.00130003	2	-5.37267e-05	3.96493e-07
2	1	0	1	1	270.436	-0.301444	-0.301661	-0.00128084	2	-5.381e-05	3.86381e-07
2	1	0	1	1	270.503	-0.29811	-0.298323	-0.00126021	2	-5.38921e-05	3.7595e-07
2	1	0	0	1	270.569	-0.294773	-0.294961	-0.00123909	2	-5.39728e-05	3.65483e-07
2	1	0	1	1	270.636	-0.291445	-0.291624	-0.00121861	2	-5.4052e-05	3.55375e-07
2	1	0	0	1	270.703	-0.288114	-0.288303	-0.0011975	2	-5.41298e-05	3.45244e-07
2	1	0	1	1	270.769	-0.284784	-0.284979	-0.00117519	2	-5.42061e-05	3.34903e-07
2	1	0	1	1	270.836	-0.281445	-0.28162	-0.00115362	2	-5.42813e-05	3.24884e-07
2	1	0	0	1	270.903	-0.278113	-0.278304	-0.00113053	2	-5.43547e-05	3.14632e-07
2	1	0	1	1	270.969	-0.274784	-0.274975	-0.00110722	2	-5.44266e-05	3.04459e-07
2	1	0	0	1	271.036	-0.271455	-0.271657	-0.00108265	2	-5.44968e-05	2.94108e-07
2	1	0	1	1	271.102	-0.268124	-0.268317	-0.00105663	2	-5.45654e-05	2.83513e-07
2	1	0	1	1	271.169	-0.264785	-0.264984	-0.001029	2	-5.46324e-05	2.72669e-07
2	1	0	0	1	271.236	-0.261454	-0.261651	-0.00100193	2	-5.46973e-05	2.62157e-07
2	1	0	1	1	271.302	-0.258124	-0.25832	-0.000973207	2	-5.47605e-05	2.51399e-07
2	1	0	0	1	271.369	-0.254795	-0.254993	-0.00094397	2	-5.48217e-05	2.40706e-07
2	1	0	1	1	271.436	-0.251463	-0.251669	-0.000911572	2	-5.48808e-05	2.29414e-07
2	1	0	1	1	271.502	-0.248125	-0.24834	-0.000879397	2	-5.49379e-05	2.18389e-07
2	1	0	0	1	271.569	-0.244794	-0.245004	-0.000843037	2	-5.49925e-05	2.06548e-07
2	1	0	1	1	271.636	-0.241464	-0.241669	-0.000804785	2	-5.50447e-05	1.94492e-07
2	1	0	0	1	271.702	-0.238135	-0.238338	-0.000766427	2	-5.50943e-05	1.82669e-07
2	1	0	0	1	271.769	-0.234798	-0.235003	-0.000723588	2	-5.51413e-05	1.70046e-07
2	1	0	1	1	271.836	-0.231464	-0.231675	-0.000679344	2	-5.51854e-05	1.57387e-07
2	1	0	0	1	271.902	-0.228134	-0.228349	-0.000630811	2	-5.52263e-05	1.44045e-07
2	1	0	1	1	271.969	-0.224803	-0.225023	-0.00057972	2	-5.52638e-05	1.3045e-07
2	1	0	0	1	272.035	-0.221475	-0.221674	-0.000522708	2	-5.52978e-05	1.15871e-07
2	1	0	0	1	272.122	-0.217141	-0.217344	-0.000442263	2	-5.53361e-05	9.61235e-08
2	1	0	1	1	272.209	-0.212805	-0.213004	-0.000355168	2	-5.53691e-05	7.56524e-08
2	1	0	0	1	272.275	-0.209474	-0.209649	-0.000286279	2	-5.53884e-05	6.0018e-08
2	1	0	1	1	272.342	-0.206144	-0.20632	-0.000215812	2	-5.54032e-05	4.45263e-08
2	1	0	0	1	272.409	-0.202815	-0.203004	-0.000141591	2	-5.54132e-05	2.87436e-08
2	1	0	0	1	272.475	-0.199479	-0.199646	-6.43222e-05	2	-5.54181e-05	1.28417e-08
2	1	0	1	1	272.542	-0.196144	-0.196318	1.2311e-05	2	-5.54179e-05	2.41686e-09
2	1	0	0	1	272.609	-0.192815	-0.192984	9.04618e-05	2	-5.54126e-05	1.74577e-08
2	1	0	1	1	272.675	-0.189484	-0.189656	0.000164792	2	-5.54021e-05	3.12537e-08
2	1	0	0	1	272.742	-0.186155	-0.18634	0.000238196	2	-5.53868e-05	4.43854e-08
2	1	0	0	1	272.808	-0.182818	-0.183001	0.000308462	2	-5.53666e-05	5.64487e-08
2	1	0	1	1	272.875	-0.179484	-0.179659	0.000374394	2	-5.53419e-05	6.72634e-08
2	1	0	0	1	272.942	-0.176155	-0.176327	0.000431367	2	-5.53131e-05	7.60617e-08
2	1	0	1	1	273.008	-0.172823	-0.17301	0.000483396	2	-5.52807e-05	8.36325e-08
2	1	0	0	1	273.075	-0.169495	-0.169674	0.000526382	2	-5.52452e-05	8.93132e-08
2	1	0	0	1	273.142	-0.166159	-0.166326	0.00056353	2	-5.5207e-05	9.37297e-08
2	1	0	1	1	273.208	-0.162824	-0.162974	0.000587989	2	-5.51667e-05	9.58266e-08
2	1	0	0	1	273.275	-0.159495	-0.159641	0.000605357	2	-5.51251e-05	9.66398e-08
2	1	0	1	1	273.342	-0.156164	-0.156309	0.000619263	2	-5.50824e-05	9.67964e-08
2	1	0	0	1	273.408	-0.152834	-0.152955	0.000622047	2	-5.50393e-05	9.5145e-08
2	1	0	0	1	273.475	-0.1495	-0.149641	0.000619797	2	-5.4996e-05	9.27468e-08
2	1	0	1	1	273.542	-0.146163	-0.146304	0.000612078	2	-5.49531e-05	8.95495e-08
2	1	0	0	1	273.608	-0.142835	-0.142968	0.000600497	2	-5.49109e-05	8.58522e-08
2	1	0	1	1	273.675	-0.139504	-0.139642	0.000586708	2	-5.48695e-05	8.1929e-08
2	1	0	0	1	273.741	-0.136174	-0.136309	0.000568307	2	-5.48292e-05	7.74655e-08
2	1	0	0	1	273.808	-0.132835	-0.132974	0.000548622	2	-5.47901e-05	7.29525e-08
2	1	0	1	1	273.875	-0.129503	-0.129668	0.000528812	2	-5.47523e-05	6.857e-08
2	1	0	0	1	273.941	-0.126174	-0.126307	0.000509342	2	-5.47159e-05	6.43335e-08
2	1	0	1	1	274.008	-0.122844	-0.122969	0.000487292	2	-5.46808e-05	5.99216e-08
2	1	0	0	1	274.075	-0.119514	-0.119657	0.000466593	2	-5.46472e-05	5.58309e-08
2	1	0	0	1	274.141	-0.116175	-0.116319	0.000447982	2	-5.46147e-05	5.21089e-08
2	1	0	1	1	274.208	-0.112844	-0.11297	0.000428816	2	-5.45836e-05	4.84433e-08
2	1	0	0	1	274.275	-0.109514	-0.109646	0.000410175	2	-5.45538e-05	4.49739e-08
2	1	0	1	1	274.341	-0.106185	-0.106304	0.000394016	2	-5.45251e-05	4.18854e-08
2	1	0	0	1	274.408	-0.102853	-0.102991	0.000378109	2	-5.44975e-05	3.8942e-08
2	1	0	0	1	274.475	-0.0995145	-0.0996669	0.000362683	2	-5.44708e-05	3.61475e-08
2	1	0	1	1	274.541	-0.0961836	-0.0963324	0.000350968	2	-5.44451e-05	3.38096e-08
2	1	0	0	1	274.608	-0.0928537	-0.0929888	0.000338075	2	-5.44203e-05	3.14372e-08
2	1	0	1	1	274.674	-0.089525	-0.0896658	0.000325968	2	-5.43963e-05	2.92282e-08
2	1	0	1	1	274.741	-0.0861885	-0.0863358	0.00031673	2	-5.43729e-05	2.73451e-08
2	1	0	0	1	274.808	-0.0828542	-0.0830257	0.000305095	2	-5.43503e-05	2.53307e-08
2	1	0	1	1	274.874	-0.0795244	-0.07969	0.000296966	2	-5.43284e-05	2.36652e-08
2	1	0	0	1	274.941	-0.0761934	-0.0763639	0.000288612	2	-5.43069e-05	2.20395e-08
2	1	0	1	1	275.008	-0.0728647	-0.0730338	0.000280779	2	-5.4286e-05	2.05063e-08
2	1	0	1	1	275.074	-0.0695293	-0.0696887	0.000274289	2	-5.42655e-05	1.91148e-08
2	1	0	0	1	275.141	-0.0661939	-0.0663626	0.000268368	2	-5.42455e-05	1.78096e-08
2	1	0	1	1	275.208	-0.0628651	-0.0630263	0.000261697	2	-5.42259e-05	1.64938e-08
2	1	0	0	1	275.274	-0.0595331	-0.0596982	0.000257322	2	-5.42067e-05	1.53617e-08
2	1	0	1	1	275.341	-0.0562044	-0.056377	0.000252098	2	-5.41878e-05	1.42126e-08
2	1	0	1	1	275.407	-0.052869	-0.0530448	0.000249079	2	-5.41691e-05	1.32123e-08
2	1	0	0	1	275.474	-0.0495336	-0.049695	0.000244224	2	-5.41507e-05	1.21367e-08
2	1	0	1	1	275.541	-0.0462048	-0.0463699	0.000241119	2	-5.41326e-05	1.11807e-08
2	1	0	0	1	275.607	-0.0428739	-0.0430302	0.000237715	2	-5.41147e-05	1.02289e-08
2	1	0	1	1	275.674	-0.039544	-0.0396678	0.000235921	2	-5.40969e-05	9.35844e-09
2	1	0	1	1	275.741	-0.0362098	-0.0363539	0.000232878	2	-5.40793e-05	8.46602e-09
2	1	0	0	1	275.807	-0.0328733	-0.033029	0.000231209	2	-5.40619e-05	7.6366e-09
2	1	0	1	1	275.874	-0.0295445	-0.0296957	0.000228711	2	-5.40447e-05	6.79173e-09
2	1	0	0	1	275.941	-0.0262147	-0.0263533	0.000226451	2	-5.40275e-05	5.96772e-09
2	1	0	1	1	276.007	-0.0228837	-0.0230365	0.000225296	2	-5.40105e-05	5.19004e-09
2	1	0	1	1	276.074	-0.019545	-0.0197075	0.000223919	2	-5.39935e-05	4.41289e-09
2	1	0	0	1	276.141	-0.0162129	-0.0163771	0.000223777	2	-5.39767e-05	3.66482e-09
2	1	0	1	1	276.207	-0.0128842	-0.0130466	0.000222536	2	-5.39599e-05	2.90333e-09
2	1	0	0	1	276.274	-0.00955547	-0.00971726	0.000222351	2	-5.39431e-05	2.16064e-09
2	1	0	1	1	276.34	-0.00622341	-0.00638641	0.000221664	2	-5.39263e-05	1.41564e-09
2	1	0	1	1	276.407	-0.00288468	-0.00305103	0.000221793	2	-5.39095e-05	6.76696e-10
2	1	0	0	1	276.474	0.000458537	0.000290312	0.000221638	2	-5.38928e-05	6.43442e-11
2	1	0	1	1	276.54	0.00377611	0.00364088	0.000221106	2	-5.3876e-05	8.05019e-10
2	1	0	0	1	276.607	0.00710484	0.00699012	0.000220405	2	-5.38593e-05	1.54066e-09
2	1	0	1	1	276.674	0.0104369	0.0103071	0.000221618	2	-5.38426e-05	2.28424e-09
2	1	0	1	1	276.74	0.0137756	0.0136667	0.000222737	2	-5.38257e-05	3.04408e-09
2	1	0	0	1	276.807	0.0171055	0.0169947	0.000222035	2	-5.3809e-05	3.77343e-09
2	1	0	1	1	276.874	0.0204364	0.0203179	0.000223125	2	-5.37922e-05	4.53342e-09
2	1	0	0	1	276.94	0.0237651	0.0236309	0.000223862	2	-5.37753e-05	5.29006e-09
2	1	0	0	1	277.007	0.0271017	0.0269693	0.000224447	2	-5.37584e-05	6.05319e-09
2	1	0	1	1	277.074	0.0304359	0.0302941	0.000226439	2	-5.37414e-05	6.85978e-09
2	1	0	0	1	277.14	0.0337647	0.0336245	0.000227564	2	-5.37244e-05	7.65172e-09
2	1	0	1	1	277.207	0.0370967	0.036981	0.00022876	2	-5.37072e-05	8.45978e-09
2	1	0	0	1	277.273	0.0404255	0.0402882	0.000229078	2	-5.369e-05	9.22913e-09
2	1	0	0	1	277.34	0.0437608	0.0436401	0.000231407	2	-5.36727e-05	1.00986e-08
2	1	0	1	1	277.407	0.0470962	0.0469835	0.000233893	2	-5.36552e-05	1.09891e-08
2	1	0	0	1	277.473	0.050425	0.0503136	0.00023465	2	-5.36377e-05	1.18061e-08
2	1	0	1	1	277.54	0.053757	0.0536561	0.000236471	2	-5.362e-05	1.26881e-08
2	1	0	0	1	277.607	0.0570858	0.0569834	0.000238501	2	-5.36022e-05	1.35906e-08
2	1	0	0	1	277.673	0.06042	0.0603207	0.000240175	2	-5.35843e-05	1.44875e-08
2	1	0	1	1	277.74	0.0637566	0.0636594	0.000242066	2	-5.35663e-05	1.54098e-08
2	1	0	0	1	277.807	0.0670853	0.0669689	0.000244264	2	-5.35482e-05	1.63581e-08
2	1	0	1	1	277.873	0.0704162	0.0703143	0.000246074	2	-5.35298e-05	1.73025e-08
2	1	0	0	1	277.94	0.0737461	0.0736272	0.000247987	2	-5.35114e-05	1.82586e-08
2	1	0	0	1	278.007	0.0770848	0.0769798	0.00025117	2	-5.34927e-05	1.9335e-08
2	1	0	1	1	278.073	0.0804169	0.0803103	0.000253373	2	-5.3474e-05	2.03484e-08
2	1	0	0	1	278.14	0.0837456	0.0836351	0.000255697	2	-5.3455e-05	2.13853e-08
2	1	0	1	1	278.206	0.0870754	0.0869666	0.000258396	2	-5.34359e-05	2.24718e-08
2	1	0	0	1	278.273	0.0904064	0.0902831	0.000261354	2	-5.34166e-05	2.35958e-08
2	1	0	0	1	278.34	0.0937451	0.0936262	0.000264043	2	-5.33971e-05	2.47214e-08
2	1	0	1	1	278.406	0.0970772	0.0969603	0.000266831	2	-5.33775e-05	2.5872e-08
2	1	0	0	1	278.45	0.0992422	0.0991352	0.00026886	2	-5.33646e-05	2.66535e-08
2	0	0	1	1	278.464	0.0999061	0.0997917	0.000264798	2	-5.33605e-05	2.64247e-08
2	0	0	1	1	278.5	0.0980701	0.0979456	0.000142921	2	-5.3356e-05	1.39985e-08
2	0	0	0	1	278.567	0.0947381	0.0946041	8.28036e-05	2	-5.33506e-05	7.83356e-09
2	0	0	1	1	278.634	0.0914093	0.0912607	3.81826e-05	2	-5.33487e-05	3.48457e-09
2	0	0	0	1	278.7	0.0880795	0.0879291	-3.1568e-06	2	-5.33496e-05	2.77574e-10
2	0	0	1	1	278.767	0.0847485	0.0846005	-3.98266e-05	2	-5.3353e-05	3.36935e-09
2	0	0	1	1	278.834	0.0814098	0.0812796	-7.43161e-05	2	-5.33589e-05	6.04038e-09
2	0	0	0	1	278.9	0.0780777	0.077944	-0.00010766	2	-5.3367e-05	8.39145e-09
2	0	0	1	1	278.967	0.074749	0.0746176	-0.000138916	2	-5.33773e-05	1.03656e-08
2	0	0	0	1	279.033	0.0714203	0.071292	-0.000168294	2	-5.33896e-05	1.1998e-08
2	0	0	1	1	279.1	0.0680882	0.0679753	-0.000196866	2	-5.34038e-05	1.3382e-08
2	0	0	1	1	279.167	0.0647495	0.0646369	-0.000224594	2	-5.34199e-05	1.45171e-08
2	0	0	0	1	279.233	0.0614186	0.06132	-0.000251408	2	-5.34378e-05	1.54163e-08
2	0	0	1	1	279.3	0.0580887	0.0579945	-0.000277249	2	-5.34574e-05	1.60789e-08
2	0	0	0	1	279.367	0.05476	0.0546616	-0.000303018	2	-5.34788e-05	1.65635e-08
2	0	0	0	1	279.433	0.0514235	0.0513056	-0.000327251	2	-5.35018e-05	1.67898e-08
2	0	0	1	1	279.5	0.0480892	0.0479602	-0.000351162	2	-5.35265e-05	1.68418e-08
2	0	0	0	1	279.567	0.0447594	0.0446084	-0.000374643	2	-5.35526e-05	1.67122e-08
2	0	0	1	1	279.633	0.0414284	0.041272	-0.000395538	2	-5.35803e-05	1.63247e-08
2	0	0	0	1	279.7	0.0380997	0.0379414	-0.000417506	2	-5.36094e-05	1.58408e-08
2	0	0	0	1	279.766	0.0347632	0.0345949	-0.000439253	2	-5.364e-05	1.51959e-08
2	0	0	1	1	279.833	0.0314289	0.0312661	-0.000459442	2	-5.3672e-05	1.4365e-08
2	0	0	0	1	279.9	0.0281002	0.0279413	-0.000479305	2	-5.37053e-05	1.33924e-08
2	0	0	1	1	279.966	0.0247681	0.0246065	-0.000499608	2	-5.37399e-05	1.22936e-08
2	0	0	0	1	280.033	0.0214394	0.0212794	-0.000518587	2	-5.37758e-05	1.10352e-08
2	0	0	0	1	280.1	0.018104	0.0179405	-0.000537664	2	-5.38131e-05	9.64597e-09
2	0	0	1	1	280.166	0.0147686	0.0146249	-0.000556283	2	-5.38515e-05	8.13559e-09
2	0	0	0	1	280.233	0.0114399	0.0112727	-0.000574585	2	-5.38912e-05	6.47713e-09
2	0	0	1	1	280.3	0.0081089	0.00793216	-0.000592512	2	-5.39321e-05	4.6999e-09
2	0	0	0	1	280.366	0.00477906	0.00458194	-0.000609621	2	-5.39741e-05	2.79324e-09
2	0	0	0	1	280.433	0.00144478	0.00123288	-0.000626003	2	-5.40173e-05	7.71786e-10
2	0	0	1	1	280.5	-0.00189173	-0.00212247	-0.000642782	2	-5.40616e-05	1.36429e-09
2	0	0	0	1	280.566	-0.00522046	-0.00543674	-0.000659855	2	-5.4107e-05	3.58746e-09
2	0	0	1	1	280.633	-0.00855141	-0.00876828	-0.000676639	2	-5.41535e-05	5.93296e-09
2	0	0	0	1	280.699	-0.0118813	-0.0121025	-0.000692992	2	-5.42011e-05	8.38692e-09
2	0	0	0	1	280.766	-0.01522	-0.0154333	-0.000708685	2	-5.42499e-05	1.09373e-08
2	0	0	1	1	280.833	-0.018552	-0.0187676	-0.000723574	2	-5.42996e-05	1.35797e-08
2	0	0	0	1	280.899	-0.0218808	-0.0220822	-0.000738977	2	-5.43502e-05	1.63183e-08
2	0	0	1	1	280.966	-0.0252106	-0.0254063	-0.000753831	2	-5.44019e-05	1.91521e-08
2	0	0	0	1	281.033	-0.0285416	-0.0287303	-0.000768095	2	-5.44546e-05	2.20676e-08
2	0	0	0	1	281.099	-0.0318803	-0.0320852	-0.00078322	2	-5.45084e-05	2.51298e-08
2	0	0	1	1	281.166	-0.0352112	-0.0354197	-0.000797068	2	-5.4563e-05	2.82319e-08
2	0	0	0	1	281.233	-0.0385411	-0.0387422	-0.000811833	2	-5.46186e-05	3.14522e-08
2	0	0	1	1	281.299	-0.0418698	-0.0420779	-0.00082574	2	-5.46751e-05	3.47455e-08
2	0	0	0	1	281.366	-0.0452019	-0.0454257	-0.00084	2	-5.47326e-05	3.81576e-08
2	0	0	0	1	281.433	-0.0485406	-0.0487576	-0.000853288	2	-5.47911e-05	4.16043e-08
2	0	0	1	1	281.499	-0.0518705	-0.0521011	-0.000867811	2	-5.48504e-05	4.52139e-08
2	0	0	0	1	281.566	-0.0552014	-0.0554453	-0.000881128	2	-5.49106e-05	4.88544e-08
2	0	0	1	1	281.632	-0.0585301	-0.0587592	-0.000893892	2	-5.49717e-05	5.25244e-08
2	0	0	1	1	281.699	-0.0618666	-0.0620981	-0.000907861	2	-5.50337e-05	5.63764e-08
2	0	0	0	1	281.766	-0.0652009	-0.0654197	-0.000920484	2	-5.50967e-05	6.02177e-08
2	0	0	1	1	281.832	-0.0685308	-0.0687531	-0.000933264	2	-5.51604e-05	6.41648e-08
2	0	0	0	1	281.916	-0.0726965	-0.0729156	-0.000946194	2	-5.52421e-05	6.89923e-08
2	0	0	0	1	281.999	-0.0768598	-0.0770426	-0.00095625	2	-5.53248e-05	7.3672e-08
2	0	0	1	1	282.066	-0.0801919	-0.080378	-0.000968628	2	-5.53914e-05	7.78564e-08
2	0	0	0	1	282.132	-0.0835206	-0.0837158	-0.00098147	2	-5.54589e-05	8.21646e-08
2	0	0	0	1	282.199	-0.086856	-0.0870221	-0.000994657	2	-5.55273e-05	8.65571e-08
2	0	0	1	1	282.266	-0.0901914	-0.0903603	-0.00100725	2	-5.55965e-05	9.10151e-08
2	0	0	0	1	282.332	-0.0935201	-0.093693	-0.0010202	2	-5.56665e-05	9.55852e-08
2	0	0	1	1	282.399	-0.0968511	-0.0970132	-0.00103319	2	-5.57374e-05	1.00233e-07
2	0	0	0	1	282.465	-0.100181	-0.100335	-0.00104677	2	-5.58092e-05	1.05027e-07
2	0	0	0	1	282.532	-0.103515	-0.103693	-0.0010598	2	-5.5882e-05	1.09894e-07
2	0	0	1	1	282.599	-0.106852	-0.10701	-0.00107229	2	-5.59556e-05	1.14746e-07
2	0	0	0	1	282.665	-0.11018	-0.110332	-0.00108684	2	-5.60301e-05	1.19913e-07
2	0	0	1	1	282.732	-0.113511	-0.11366	-0.00110065	2	-5.61054e-05	1.251e-07
2	0	0	0	1	282.799	-0.116841	-0.116995	-0.00111581	2	-5.61818e-05	1.30544e-07
2	0	0	0	1	282.865	-0.12018	-0.120331	-0.00113076	2	-5.62594e-05	1.36065e-07
2	0	0	1	1	282.932	-0.123512	-0.123668	-0.00114653	2	-5.63377e-05	1.41789e-07
2	0	0	0	1	282.999	-0.126841	-0.127005	-0.00116329	2	-5.64172e-05	1.47744e-07
2	0	0	1	1	283.065	-0.130171	-0.130342	-0.00118054	2	-5.64978e-05	1.53874e-07
2	0	0	0	1	283.132	-0.133502	-0.13368	-0.00119882	2	-5.65796e-05	1.60259e-07
2	0	0	0	1	283.199	-0.13684	-0.137015	-0.00121789	2	-5.66629e-05	1.66869e-07
2	0	0	1	1	283.265	-0.140171	-0.140363	-0.0012383	2	-5.67472e-05	1.73811e-07
2	0	0	0	1	283.332	-0.143501	-0.143681	-0.00126081	2	-5.68331e-05	1.81154e-07
2	0	0	1	1	283.398	-0.14683	-0.147018	-0.00128488	2	-5.69204e-05	1.88901e-07
2	0	0	0	1	283.465	-0.150162	-0.150329	-0.00131209	2	-5.70095e-05	1.97245e-07
2	0	0	0	1	283.532	-0.153501	-0.153648	-0.00134091	2	-5.71007e-05	2.06028e-07
2	0	0	1	1	283.598	-0.156832	-0.157001	-0.00137425	2	-5.71937e-05	2.15758e-07
2	0	0	0	1	283.665	-0.160161	-0.160324	-0.00140973	2	-5.7289e-05	2.26013e-07
2	0	0	1	1	283.732	-0.16349	-0.163682	-0.00144889	2	-5.73868e-05	2.37156e-07
2	0	0	1	1	283.798	-0.166827	-0.167013	-0.0014927	2	-5.74875e-05	2.49301e-07
2	0	0	0	1	283.865	-0.170161	-0.170361	-0.00154044	2	-5.75912e-05	2.6243e-07
2	0	0	1	1	283.932	-0.173491	-0.173685	-0.00159342	2	-5.76981e-05	2.76752e-07
2	0	0	0	1	283.998	-0.176822	-0.177004	-0.00164876	2	-5.78087e-05	2.91837e-07
2	0	0	1	1	284.065	-0.18015	-0.180348	-0.00171084	2	-5.79231e-05	3.08546e-07
2	0	0	1	1	284.131	-0.183486	-0.183703	-0.00177961	2	-5.80422e-05	3.2692e-07
2	0	0	0	1	284.198	-0.186821	-0.18701	-0.001851	2	-5.81659e-05	3.46156e-07
2	0	0	1	1	284.265	-0.19015	-0.190334	-0.00192772	2	-5.82943e-05	3.66911e-07
2	0	0	0	1	284.331	-0.193482	-0.193666	-0.00201186	2	-5.84282e-05	3.89628e-07
2	0	0	1	1	284.398	-0.196811	-0.196997	-0.00209565	2	-5.85676e-05	4.12837e-07
2	0	0	1	1	284.465	-0.200146	-0.200332	-0.00218474	2	-5.8713e-05	4.37674e-07
2	0	0	0	1	284.531	-0.203482	-0.203668	-0.00227843	2	-5.88645e-05	4.64043e-07
2	0	0	1	1	284.598	-0.20681	-0.206988	-0.00236786	2	-5.90219e-05	4.90119e-07
2	0	0	0	1	284.665	-0.210141	-0.210336	-0.00246057	2	-5.91854e-05	5.17547e-07
2	0	0	1	1	284.731	-0.213471	-0.213688	-0.00254899	2	-5.93549e-05	5.44688e-07
2	0	0	1	1	284.798	-0.216805	-0.21702	-0.00263257	2	-5.95303e-05	5.71321e-07
2	0	0	0	1	284.865	-0.220142	-0.220347	-0.0027128	2	-5.97112e-05	5.97758e-07
2	0	0	1	1	284.931	-0.223471	-0.22369	-0.00278653	2	-5.9897e-05	6.23318e-07
2	0	0	0	1	284.998	-0.2268	-0.227029	-0.00285222	2	-6.00874e-05	6.47536e-07
2	0	0	1	1	285.064	-0.230131	-0.230351	-0.00290532	2	-6.02817e-05	6.69243e-07
2	0	0	1	1	285.131	-0.23347	-0.233678	-0.00294884	2	-6.04798e-05	6.89079e-07
2	0	0	0	1	285.198	-0.236802	-0.237004	-0.00298257	2	-6.06799e-05	7.06881e-07
2	0	0	1	1	285.264	-0.240131	-0.240331	-0.003005	2	-6.08819e-05	7.22192e-07
2	0	0	0	1	285.331	-0.24346	-0.243661	-0.00302284	2	-6.10852e-05	7.36548e-07
2	0	0	1	1	285.398	-0.246792	-0.247008	-0.00303447	2	-6.12895e-05	7.49538e-07
2	0	0	1	1	285.464	-0.25013	-0.250348	-0.00303195	2	-6.14946e-05	7.59044e-07
2	0	0	0	1	285.531	-0.253461	-0.253684	-0.00302888	2	-6.16989e-05	7.68378e-07
2	0	0	1	1	285.598	-0.256791	-0.256992	-0.00301871	2	-6.19027e-05	7.75784e-07
2	0	0	0	1	285.664	-0.26012	-0.260318	-0.00300872	2	-6.2106e-05	7.83225e-07
2	0	0	1	1	285.731	-0.263452	-0.263649	-0.00299371	2	-6.23084e-05	7.89291e-07
2	0	0	1	1	285.798	-0.266791	-0.267005	-0.0029759	2	-6.25103e-05	7.94579e-07
2	0	0	0	1	285.864	-0.270121	-0.270315	-0.00295608	2	-6.27103e-05	7.99073e-07
2	0	0	1	1	285.931	-0.273452	-0.273645	-0.00293877	2	-6.29091e-05	8.04182e-07
2	0	0	0	1	285.997	-0.27678	-0.276981	-0.0029168	2	-6.31067e-05	8.07897e-07
2	0	0	0	1	286.064	-0.280117	-0.280306	-0.00289741	2	-6.33031e-05	8.12162e-07
2	0	0	1	1	286.131	-0.283451	-0.283633	-0.00287867	2	-6.34982e-05	8.16487e-07
2	0	0	0	1	286.197	-0.28678	-0.286974	-0.00286288	2	-6.3692e-05	8.2157e-07
2	0	0	1	1	286.264	-0.290112	-0.290319	-0.00284471	2	-6.38846e-05	8.25874e-07
2	0	0	0	1	286.331	-0.293441	-0.293627	-0.00282777	2	-6.4076e-05	8.30311e-07
2	0	0	0	1	286.397	-0.296776	-0.296986	-0.00281424	2	-6.42667e-05	8.35791e-07
2	0	0	1	1	286.464	-0.300111	-0.300328	-0.00280174	2	-6.44565e-05	8.41441e-07
2	0	0	0	1	286.531	-0.30344	-0.303653	-0.00278773	2	-6.46452e-05	8.46502e-07
2	0	0	1	1	286.597	-0.306772	-0.306992	-0.0027778	2	-6.4833e-05	8.52761e-07
2	0	0	0	1	286.664	-0.310101	-0.310316	-0.00276668	2	-6.50201e-05	8.58546e-07
2	0	0	0	1	286.73	-0.313435	-0.313663	-0.00275635	2	-6.52069e-05	8.64566e-07
2	0	0	1	1	286.797	-0.316772	-0.316986	-0.00274999	2	-6.5393e-05	8.71708e-07
2	0	0	0	1	286.864	-0.3201	-0.320303	-0.00274046	2	-6.55784e-05	8.77776e-07
2	0	0	1	1	286.93	-0.323431	-0.323641	-0.00273586	2	-6.57633e-05	8.85434e-07
2	0	0	0	1	286.997	-0.326761	-0.326951	-0.00273099	2	-6.59479e-05	8.92902e-07
2	0	0	0	1	287.064	-0.3301	-0.330302	-0.00272742	2	-6.61327e-05	9.00874e-07
2	0	0	1	1	287.13	-0.333432	-0.333654	-0.00272603	2	-6.63168e-05	9.0955e-07
2	0	0	0	1	287.197	-0.336761	-0.336968	-0.00272314	2	-6.65008e-05	9.1761e-07
2	0	0	1	1	287.264	-0.340091	-0.340339	-0.00272254	2	-6.66847e-05	9.26587e-07
2	0	0	0	1	287.33	-0.343422	-0.343669	-0.00272237	2	-6.68686e-05	9.35595e-07
2	0	0	0	1	287.397	-0.34676	-0.347009	-0.00272308	2	-6.7053e-05	9.44931e-07
2	0	0	1	1	287.464	-0.350091	-0.350336	-0.00272577	2	-6.7237e-05	9.54934e-07
2	0	0	0	1	287.53	-0.353421	-0.35367	-0.00272725	2	-6.74211e-05	9.64548e-07
2	0	0	1	1	287.597	-0.35675	-0.356996	-0.00272918	2	-6.76054e-05	9.74308e-07
2	0	0	0	1	287.663	-0.360082	-0.36033	-0.00273403	2	-6.779e-05	9.85154e-07
2	0	0	0	1	287.73	-0.363421	-0.363656	-0.00273877	2	-6.79753e-05	9.95971e-07
2	0	0	1	1	287.797	-0.366752	-0.366979	-0.00274458	2	-6.81604e-05	1.0072e-06
2	0	0	0	1	287.863	-0.370081	-0.370287	-0.00274885	2	-6.83459e-05	1.01786e-06
2	0	0	1	1	287.93	-0.37341	-0.373633	-0.00275432	2	-6.85317e-05	1.0291e-06
2	0	0	1	1	287.997	-0.376747	-0.376953	-0.00276085	2	-6.87182e-05	1.04071e-06
2	0	0	0	1	288.063	-0.380081	-0.38031	-0.00276846	2	-6.89051e-05	1.05287e-06
2	0	0	1	1	288.13	-0.383411	-0.383645	-0.00277568	2	-6.90923e-05	1.06487e-06
2	0	0	0	1	288.197	-0.386742	-0.386997	-0.00278188	2	-6.928e-05	1.07658e-06
2	0	0	1	1	288.263	-0.39007	-0.390323	-0.00279262	2	-6.94682e-05	1.09003e-06
2	0	0	1	1	288.33	-0.393406	-0.393656	-0.00280109	2	-6.96572e-05	1.10267e-06
2	0	0	0	1	288.397	-0.396741	-0.397005	-0.00280828	2	-6.98469e-05	1.1149e-06
2	0	0	1	1	288.463	-0.40007	-0.400306	-0.00281892	2	-7.00368e-05	1.12843e-06
2	0	0	0	1	288.53	-0.403402	-0.403656	-0.00282762	2	-7.02275e-05	1.14139e-06
2	0	0	1	1	288.596	-0.406731	-0.406974	-0.0028383	2	-7.04187e-05	1.15511e-06
2	0	0	1	1	288.663	-0.410066	-0.410306	-0.00284937	2	-7.0611e-05	1.16911e-06
2	0	0	0	1	288.73	-0.413402	-0.41365	-0.00285982	2	-7.0804e-05	1.18296e-06
2	0	0	1	1	288.796	-0.41673	-0.416983	-0.0028703	2	-7.09974e-05	1.19687e-06
2	0	0	0	1	288.863	-0.420061	-0.420315	-0.00288299	2	-7.11916e-05	1.21176e-06
2	0	0	1	1	288.93	-0.423391	-0.423638	-0.00289483	2	-7.13866e-05	1.22636e-06
2	0	0	1	1	288.996	-0.426725	-0.426956	-0.00290737	2	-7.15826e-05	1.24132e-06
2	0	0	0	1	289.063	-0.430062	-0.430283	-0.00292058	2	-7.17796e-05	1.25667e-06
2	0	0	1	1	289.13	-0.433391	-0.433597	-0.00293477	2	-7.19771e-05	1.27251e-06
2	0	0	0	1	289.196	-0.43672	-0.436946	-0.00294892	2	-7.21755e-05	1.28852e-06
2	0	0	1	1	289.263	-0.440051	-0.440283	-0.00296338	2	-7.2375e-05	1.30473e-06
2	0	0	1	1	289.33	-0.44339	-0.443601	-0.00297808	2	-7.25759e-05	1.32108e-06
2	0	0	0	1	289.396	-0.446722	-0.446939	-0.00299191	2	-7.27773e-05	1.3372e-06
2	0	0	1	1	289.463	-0.450051	-0.450261	-0.0030092	2	-7.29797e-05	1.35493e-06
2	0	0	0	1	289.529	-0.453381	-0.453583	-0.00302452	2	-7.31832e-05	1.37187e-06
2	0	0	1	1	289.596	-0.456712	-0.456921	-0.00304184	2	-7.33878e-05	1.38988e-06
2	0	0	1	1	289.663	-0.46005	-0.460271	-0.00305951	2	-7.35941e-05	1.4082e-06
2	0	0	0	1	289.729	-0.463381	-0.46358	-0.00307641	2	-7.3801e-05	1.42616e-06
2	0	0	1	1	289.796	-0.466711	-0.466927	-0.00309483	2	-7.40091e-05	1.44506e-06
2	0	0	0	1	289.863	-0.47004	-0.470294	-0.0031131	2	-7.42185e-05	1.46407e-06
2	0	0	1	1	289.929	-0.473372	-0.473612	-0.00313271	2	-7.44291e-05	1.48369e-06
2	0	0	1	1	289.996	-0.476711	-0.476942	-0.0031526	2	-7.46416e-05	1.50361e-06
2	0	0	0	1	290.063	-0.480041	-0.480281	-0.00317395	2	-7.48549e-05	1.52439e-06
2	0	0	1	1	290.129	-0.483372	-0.483606	-0.00319338	2	-7.50695e-05	1.54434e-06
2	0	0	0	1	290.196	-0.4867	-0.486934	-0.00321685	2	-7.52856e-05	1.56639e-06
2	0	0	0	1	290.262	-0.490037	-0.490264	-0.00323838	2	-7.55035e-05	1.58766e-06
2	0	0	1	1	290.329	-0.493371	-0.493596	-0.00326125	2	-7.57229e-05	1.60974e-06
2	0	0	0	1	290.396	-0.496701	-0.496912	-0.00328736	2	-7.59436e-05	1.63353e-06
2	0	0	1	1	290.462	-0.500032	-0.500267	-0.00331269	2	-7.6166e-05	1.65723e-06
2	0	0	0	1	290.529	-0.503361	-0.503588	-0.00334087	2	-7.63902e-05	1.68242e-06
2	0	0	0	1	290.596	-0.506696	-0.506932	-0.00336612	2	-7.66165e-05	1.7064e-06
2	0	0	1	1	290.662	-0.510031	-0.510289	-0.00339362	2	-7.68446e-05	1.73173e-06
2	0	0	0	1	290.729	-0.51336	-0.513601	-0.00342311	2	-7.70742e-05	1.75811e-06
2	0	0	1	1	290.796	-0.516692	-0.516925	-0.00345227	2	-7.73058e-05	1.78457e-06
2	0	0	0	1	290.862	-0.520021	-0.520246	-0.00348487	2	-7.75394e-05	1.81299e-06
2	0	0	0	1	290.929	-0.523355	-0.523571	-0.00351505	2	-7.77755e-05	1.84038e-06
2	0	0	1	1	290.996	-0.526692	-0.526921	-0.00354811	2	-7.80138e-05	1.86957e-06
2	0	0	0	1	291.062	-0.53002	-0.530254	-0.00358455	2	-7.82539e-05	1.90072e-06
2	0	0	1	1	291.129	-0.533351	-0.533569	-0.00361766	2	-7.84964e-05	1.93027e-06
2	0	0	0	1	291.195	-0.536681	-0.536898	-0.00365564	2	-7.87413e-05	1.96271e-06
2	0	0	0	1	291.262	-0.54002	-0.540233	-0.00369509	2	-7.89894e-05	1.99621e-06
2	0	0	1	1	291.329	-0.543352	-0.543572	-0.00373413	2	-7.92394e-05	2.02977e-06
2	0	0	0	1	291.395	-0.546681	-0.546915	-0.0037745	2	-7.94921e-05	2.06433e-06
2	0	0	1	1	291.462	-0.550011	-0.550227	-0.00381864	2	-7.97477e-05	2.10112e-06
2	0	0	0	1	291.529	-0.553342	-0.553592	-0.00386335	2	-8.00062e-05	2.13872e-06
2	0	0	0	1	291.595	-0.55668	-0.556918	-0.0039092	2	-8.02684e-05	2.1771e-06
2	0	0	1	1	291.662	-0.560012	-0.560252	-0.00395438	2	-8.05329e-05	2.21545e-06
2	0	0	0	1	291.729	-0.563341	-0.56358	-0.0040045	2	-8.08005e-05	2.25686e-06
2	0	0	1	1	291.795	-0.56667	-0.56691	-0.00405654	2	-8.10716e-05	2.29969e-06
2	0	0	0	1	291.862	-0.570002	-0.570258	-0.00411075	2	-8.13462e-05	2.34419e-06
2	0	0	0	1	291.929	-0.573341	-0.573593	-0.00416409	2	-8.16252e-05	2.38849e-06
2	0	0	1	1	291.995	-0.576672	-0.576922	-0.00421707	2	-8.19069e-05	2.43292e-06
2	0	0	0	1	292.062	-0.580001	-0.580245	-0.00427469	2	-8.21924e-05	2.48037e-06
2	0	0	1	1	292.128	-0.58333	-0.583562	-0.00433655	2	-8.24818e-05	2.53065e-06
2	0	0	1	1	292.195	-0.586667	-0.586909	-0.00439664	2	-8.27757e-05	2.58043e-06
2	0	0	0	1	292.262	-0.590001	-0.590242	-0.00445808	2	-8.30737e-05	2.63135e-06
2	0	0	1	1	292.328	-0.593331	-0.59359	-0.00452344	2	-8.33755e-05	2.68507e-06
2	0	0	0	1	292.395	-0.596662	-0.596899	-0.00458981	2	-8.36816e-05	2.73966e-06
2	0	0	1	1	292.442	-0.598991	-0.599223	-0.00463772	2	-8.38981e-05	2.77903e-06
2	0	0	1	1	292.458	-0.599827	-0.600047	-0.00464985	2	-8.39767e-05	2.79013e-06
2	0	0	0	1	292.459	-0.60016	-0.600268	-0.0047349	2	-8.39776e-05	2.84221e-06