File: TAP_Report/Data/MB_PB/100 uM MB 10mM PB  second ito_01_CV_C01_2.mpt
EC-Lab ASCII FILE
Nb header lines : 53

Cyclic Voltammetry

Run on channel : 1 (SN 0696)
User :
Electrode connection : standard
Ewe ctrl range : min = -10.00 V, max = 10.00 V
Ewe,I filtering : 50 kHz
Channel : Grounded
Acquisition started on : 05/17/2017 12:39:23
Saved on :
	File : 100 uM MB 10mM PB  second ito_01_CV_C01.mpr
	Directory : \\userfs\st659\w2k\EC-Lab\Data\ITO Characterisation 17-5-17\
	Host : 144.32.136.43
Device : SP-300 (SN 0182)
Address : USB
EC-Lab for windows v10.44 (software)
Internet server v10.44 (firmware)
Command interpretor v10.44 (firmware)
Electrode material :
Initial state :
Electrolyte :
Comments :
Cable : standard
Electrode surface area : 0.001 cm²
Characteristic mass : 0.001 g
Equivalent Weight : 0.000 g/eq.
Density : 0.000 g/cm3
Ei (V)              0.000
vs.                 Eoc
dE/dt               20.000
dE/dt unit          mV/s
E1 (V)              0.100
vs.                 Ref
Step percent        50
N                   10
E range min (V)     -10.000
E range max (V)     10.000
I Range             Auto
I Range min         Unset
I Range max         Unset
I Range init        Unset
Bandwidth           8
E2 (V)              -0.600
vs.                 Ref
nc cycles           2
Reverse Scan        1
Ef (V)              0.000
vs.                 Eoc

mode	ox/red	error	control changes	counter inc.	time/s	control/V	Ewe/V	<I>/mA	cycle number	(Q-Qo)/C	P/W
2	1	0	0	1	51.9062	-0.598327	-0.598518	-0.0047316	2	-0.000105274	2.83195e-06
2	1	0	1	1	52.0728	-0.594995	-0.595203	-0.00456743	2	-0.000106044	2.71855e-06
2	1	0	0	1	52.2394	-0.591663	-0.591862	-0.00443	2	-0.00010679	2.62195e-06
2	1	0	1	1	52.406	-0.588331	-0.588542	-0.00430397	2	-0.000107513	2.53307e-06
2	1	0	0	1	52.5726	-0.584999	-0.585202	-0.00419612	2	-0.000108217	2.45558e-06
2	1	0	1	1	52.7392	-0.581667	-0.581863	-0.00409765	2	-0.000108905	2.38427e-06
2	1	0	0	1	52.9058	-0.578335	-0.578537	-0.00400371	2	-0.000109576	2.31629e-06
2	1	0	1	1	53.0724	-0.575003	-0.575205	-0.00391548	2	-0.000110231	2.25221e-06
2	1	0	0	1	53.239	-0.571671	-0.571854	-0.00383861	2	-0.000110873	2.19512e-06
2	1	0	1	1	53.4056	-0.568339	-0.568546	-0.0037586	2	-0.000111502	2.13694e-06
2	1	0	0	1	53.5722	-0.565007	-0.565207	-0.00369575	2	-0.000112119	2.08886e-06
2	1	0	1	1	53.7388	-0.561675	-0.561877	-0.00362257	2	-0.000112725	2.03544e-06
2	1	0	0	1	53.9054	-0.558343	-0.558552	-0.00355145	2	-0.000113318	1.98367e-06
2	1	0	1	1	54.072	-0.555011	-0.555223	-0.00348476	2	-0.000113901	1.93482e-06
2	1	0	0	1	54.2386	-0.551679	-0.551852	-0.00343038	2	-0.000114473	1.89306e-06
2	1	0	1	1	54.4052	-0.548347	-0.548534	-0.00337337	2	-0.000115036	1.85041e-06
2	1	0	0	1	54.5718	-0.545015	-0.545206	-0.00331217	2	-0.000115589	1.80581e-06
2	1	0	1	1	54.7384	-0.541683	-0.541853	-0.00326572	2	-0.000116133	1.76954e-06
2	1	0	0	1	54.905	-0.538351	-0.538536	-0.00321502	2	-0.00011667	1.7314e-06
2	1	0	1	1	55.0716	-0.535019	-0.535214	-0.00316711	2	-0.000117197	1.69508e-06
2	1	0	0	1	55.2382	-0.531687	-0.531872	-0.00312111	2	-0.000117717	1.66003e-06
2	1	0	1	1	55.4048	-0.528355	-0.528536	-0.003073	2	-0.00011823	1.62419e-06
2	1	0	0	1	55.5714	-0.525023	-0.52523	-0.00302982	2	-0.000118734	1.59135e-06
2	1	0	1	1	55.738	-0.521691	-0.521904	-0.00298897	2	-0.000119232	1.55995e-06
2	1	0	0	1	55.9046	-0.518359	-0.518566	-0.00294826	2	-0.000119723	1.52886e-06
2	1	0	1	1	56.0712	-0.515027	-0.515216	-0.00291194	2	-0.000120207	1.50028e-06
2	1	0	0	1	56.2378	-0.511695	-0.511899	-0.00286972	2	-0.000120685	1.46901e-06
2	1	0	1	1	56.4044	-0.508363	-0.508554	-0.0028362	2	-0.000121156	1.44236e-06
2	1	0	0	1	56.571	-0.505031	-0.505203	-0.00280398	2	-0.000121622	1.41658e-06
2	1	0	1	1	56.7376	-0.501699	-0.501892	-0.00276706	2	-0.000122082	1.38876e-06
2	1	0	0	1	56.9042	-0.498367	-0.498559	-0.00273268	2	-0.000122536	1.3624e-06
2	1	0	0	1	57.0709	-0.495033	-0.495224	-0.002698	2	-0.000122985	1.33611e-06
2	1	0	1	1	57.2375	-0.491701	-0.491892	-0.0026685	2	-0.000123428	1.31261e-06
2	1	0	0	1	57.4041	-0.488369	-0.488561	-0.00263527	2	-0.000123866	1.28749e-06
2	1	0	1	1	57.5707	-0.485037	-0.485213	-0.00260525	2	-0.000124298	1.2641e-06
2	1	0	0	1	57.7373	-0.481705	-0.481892	-0.0025769	2	-0.000124726	1.24179e-06
2	1	0	1	1	57.9039	-0.478373	-0.478559	-0.00254724	2	-0.000125149	1.21901e-06
2	1	0	0	1	58.0705	-0.475041	-0.475236	-0.00251446	2	-0.000125566	1.19496e-06
2	1	0	1	1	58.2371	-0.471709	-0.471907	-0.00249053	2	-0.000125979	1.1753e-06
2	1	0	0	1	58.4037	-0.468377	-0.468561	-0.00246267	2	-0.000126388	1.15391e-06
2	1	0	1	1	58.5703	-0.465045	-0.465186	-0.00243718	2	-0.000126792	1.13374e-06
2	1	0	0	1	58.7369	-0.461713	-0.461887	-0.00241081	2	-0.000127191	1.11352e-06
2	1	0	1	1	58.9035	-0.458381	-0.45856	-0.00238556	2	-0.000127587	1.09392e-06
2	1	0	0	1	59.0701	-0.455049	-0.455234	-0.00236251	2	-0.000127978	1.07549e-06
2	1	0	1	1	59.2367	-0.451717	-0.451885	-0.00233662	2	-0.000128365	1.05588e-06
2	1	0	0	1	59.4033	-0.448385	-0.448567	-0.00231443	2	-0.000128748	1.03818e-06
2	1	0	1	1	59.5699	-0.445053	-0.445228	-0.00228915	2	-0.000129127	1.01919e-06
2	1	0	0	1	59.7365	-0.441721	-0.44191	-0.002266	2	-0.000129502	1.00137e-06
2	1	0	1	1	59.9031	-0.438389	-0.438578	-0.00224196	2	-0.000129874	9.83272e-07
2	1	0	0	1	60.0698	-0.435055	-0.435236	-0.00221815	2	-0.000130241	9.65418e-07
2	1	0	1	1	60.2364	-0.431723	-0.431903	-0.00219739	2	-0.000130605	9.49062e-07
2	1	0	0	1	60.403	-0.428391	-0.428559	-0.00217316	2	-0.000130964	9.31326e-07
2	1	0	1	1	60.5696	-0.425059	-0.425254	-0.00215131	2	-0.00013132	9.14853e-07
2	1	0	0	1	60.7362	-0.421727	-0.42193	-0.00213125	2	-0.000131673	8.9924e-07
2	1	0	1	1	60.9028	-0.418395	-0.418584	-0.0021097	2	-0.000132022	8.83086e-07
2	1	0	0	1	61.0694	-0.415063	-0.415252	-0.00208962	2	-0.000132368	8.67718e-07
2	1	0	1	1	61.236	-0.411731	-0.411906	-0.00207079	2	-0.00013271	8.5297e-07
2	1	0	0	1	61.4026	-0.408399	-0.408569	-0.00205126	2	-0.000133049	8.38082e-07
2	1	0	1	1	61.5692	-0.405067	-0.405245	-0.0020315	2	-0.000133385	8.23254e-07
2	1	0	0	1	61.7358	-0.401735	-0.401933	-0.00201157	2	-0.000133717	8.08515e-07
2	1	0	1	1	61.9024	-0.398403	-0.398586	-0.00199261	2	-0.000134047	7.94227e-07
2	1	0	0	1	62.069	-0.395071	-0.395266	-0.00197573	2	-0.000134373	7.80941e-07
2	1	0	1	1	62.2356	-0.391739	-0.39194	-0.00195688	2	-0.000134696	7.66978e-07
2	1	0	0	1	62.4022	-0.388407	-0.388595	-0.001936	2	-0.000135016	7.52321e-07
2	1	0	1	1	62.5688	-0.385075	-0.385284	-0.001918	2	-0.000135333	7.38976e-07
2	1	0	0	1	62.7354	-0.381743	-0.381923	-0.00190014	2	-0.000135647	7.25705e-07
2	1	0	1	1	62.902	-0.378411	-0.378582	-0.00188138	2	-0.000135957	7.12257e-07
2	1	0	0	1	63.0686	-0.375079	-0.375255	-0.00186368	2	-0.000136265	6.99355e-07
2	1	0	1	1	63.2352	-0.371747	-0.371915	-0.0018452	2	-0.000136569	6.86256e-07
2	1	0	0	1	63.4018	-0.368415	-0.368583	-0.00182851	2	-0.000136871	6.73957e-07
2	1	0	1	1	63.5684	-0.365083	-0.36526	-0.00180982	2	-0.00013717	6.61052e-07
2	1	0	0	1	63.735	-0.361751	-0.361924	-0.00179406	2	-0.000137466	6.49312e-07
2	1	0	1	1	63.9016	-0.358419	-0.358592	-0.00177734	2	-0.000137759	6.37341e-07
2	1	0	0	1	64.0682	-0.355087	-0.355278	-0.00175974	2	-0.000138049	6.25198e-07
2	1	0	1	1	64.2348	-0.351755	-0.351941	-0.00174283	2	-0.000138336	6.13375e-07
2	1	0	0	1	64.4014	-0.348423	-0.348586	-0.00172357	2	-0.000138621	6.00812e-07
2	1	0	1	1	64.568	-0.345091	-0.345275	-0.00170779	2	-0.000138902	5.89659e-07
2	1	0	0	1	64.7346	-0.341759	-0.341942	-0.00168932	2	-0.000139181	5.77648e-07
2	1	0	1	1	64.9012	-0.338427	-0.338579	-0.00167308	2	-0.000139457	5.6647e-07
2	1	0	0	1	65.0678	-0.335095	-0.335251	-0.00165691	2	-0.00013973	5.55481e-07
2	1	0	1	1	65.2344	-0.331763	-0.331915	-0.00164004	2	-0.00014	5.44355e-07
2	1	0	0	1	65.401	-0.328431	-0.328576	-0.00162265	2	-0.000140267	5.33164e-07
2	1	0	1	1	65.5676	-0.325099	-0.325235	-0.00160559	2	-0.000140532	5.22194e-07
2	1	0	0	1	65.7342	-0.321767	-0.321917	-0.00159002	2	-0.000140794	5.11853e-07
2	1	0	1	1	65.9008	-0.318435	-0.318599	-0.00157394	2	-0.000141053	5.01455e-07
2	1	0	0	1	66.0674	-0.315103	-0.315261	-0.00155577	2	-0.00014131	4.90473e-07
2	1	0	1	1	66.234	-0.311771	-0.311952	-0.00154029	2	-0.000141563	4.80498e-07
2	1	0	0	1	66.4006	-0.30844	-0.30861	-0.00152233	2	-0.000141814	4.69805e-07
2	1	0	1	1	66.5672	-0.305107	-0.305259	-0.00150688	2	-0.000142062	4.59987e-07
2	1	0	0	1	66.7338	-0.301775	-0.301941	-0.00148952	2	-0.000142307	4.49748e-07
2	1	0	1	1	66.9004	-0.298443	-0.298618	-0.00147246	2	-0.00014255	4.39702e-07
2	1	0	0	1	67.067	-0.295111	-0.295268	-0.00145507	2	-0.000142789	4.29636e-07
2	1	0	1	1	67.2336	-0.291779	-0.291904	-0.00143868	2	-0.000143026	4.19956e-07
2	1	0	0	1	67.4002	-0.288447	-0.288582	-0.00142192	2	-0.00014326	4.10342e-07
2	1	0	0	1	67.5669	-0.285113	-0.285241	-0.00140438	2	-0.000143491	4.00587e-07
2	1	0	1	1	67.7335	-0.281781	-0.281931	-0.00138662	2	-0.000143719	3.90931e-07
2	1	0	0	1	67.9001	-0.278449	-0.278597	-0.00136977	2	-0.000143945	3.81616e-07
2	1	0	1	1	68.0667	-0.275117	-0.275264	-0.00135207	2	-0.000144167	3.72178e-07
2	1	0	0	1	68.2333	-0.271785	-0.271928	-0.00133097	2	-0.000144386	3.61929e-07
2	1	0	1	1	68.3999	-0.268453	-0.268621	-0.00131078	2	-0.000144602	3.52102e-07
2	1	0	0	1	68.5665	-0.265121	-0.265287	-0.00129149	2	-0.000144814	3.42616e-07
2	1	0	1	1	68.7331	-0.261789	-0.261941	-0.00127117	2	-0.000145023	3.32973e-07
2	1	0	0	1	68.8997	-0.258457	-0.258608	-0.0012501	2	-0.000145229	3.23285e-07
2	1	0	1	1	69.0663	-0.255125	-0.255275	-0.00122676	2	-0.000145431	3.13161e-07
2	1	0	0	1	69.2329	-0.251793	-0.251958	-0.00120358	2	-0.000145629	3.03251e-07
2	1	0	1	1	69.3995	-0.248461	-0.24862	-0.00117891	2	-0.000145823	2.93102e-07
2	1	0	0	1	69.5661	-0.245129	-0.245298	-0.0011519	2	-0.000146013	2.82559e-07
2	1	0	1	1	69.7327	-0.241797	-0.241951	-0.00112449	2	-0.000146198	2.72071e-07
2	1	0	0	1	69.8993	-0.238465	-0.238645	-0.00109615	2	-0.000146379	2.61591e-07
2	1	0	1	1	70.0659	-0.235133	-0.235294	-0.00106426	2	-0.000146554	2.50414e-07
2	1	0	0	1	70.2325	-0.231801	-0.231976	-0.00103063	2	-0.000146724	2.39081e-07
2	1	0	1	1	70.3991	-0.228469	-0.228648	-0.000993997	2	-0.000146888	2.27276e-07
2	1	0	0	1	70.5657	-0.225137	-0.225316	-0.000955157	2	-0.000147046	2.15212e-07
2	1	0	1	1	70.7324	-0.221803	-0.221975	-0.000912012	2	-0.000147197	2.02444e-07
2	1	0	0	1	70.899	-0.218471	-0.218644	-0.000866332	2	-0.000147341	1.89418e-07
2	1	0	1	1	71.0656	-0.215139	-0.215311	-0.000817322	2	-0.000147477	1.75979e-07
2	1	0	0	1	71.2322	-0.211807	-0.211961	-0.000763524	2	-0.000147604	1.61837e-07
2	1	0	1	1	71.3988	-0.208475	-0.208629	-0.000706054	2	-0.000147722	1.47303e-07
2	1	0	0	1	71.5654	-0.205143	-0.205288	-0.000646437	2	-0.00014783	1.32706e-07
2	1	0	1	1	71.732	-0.201811	-0.201954	-0.000584695	2	-0.000147928	1.18082e-07
2	1	0	0	1	71.9236	-0.197979	-0.198119	-0.000509152	2	-0.000148027	1.00873e-07
2	1	0	1	1	72.1152	-0.194147	-0.194303	-0.000435762	2	-0.000148113	8.46699e-08
2	1	0	0	1	72.2818	-0.190815	-0.190964	-0.000373163	2	-0.000148176	7.12607e-08
2	1	0	1	1	72.4484	-0.187483	-0.187638	-0.000311515	2	-0.000148229	5.84519e-08
2	1	0	0	1	72.615	-0.184151	-0.184318	-0.000256439	2	-0.000148272	4.72662e-08
2	1	0	1	1	72.7816	-0.180819	-0.180962	-0.000205202	2	-0.000148306	3.71338e-08
2	1	0	0	1	72.9482	-0.177487	-0.177628	-0.000160699	2	-0.000148333	2.85445e-08
2	1	0	1	1	73.1148	-0.174155	-0.174314	-0.000125475	2	-0.000148352	2.18722e-08
2	1	0	0	1	73.2814	-0.170823	-0.170983	-9.70709e-05	2	-0.000148367	1.65974e-08
2	1	0	1	1	73.448	-0.167491	-0.167662	-7.79686e-05	2	-0.000148377	1.30724e-08
2	1	0	0	1	73.6146	-0.164159	-0.164311	-6.40042e-05	2	-0.000148385	1.05166e-08
2	1	0	1	1	73.7812	-0.160827	-0.160963	-5.96433e-05	2	-0.000148392	9.60036e-09
2	1	0	0	1	73.9478	-0.157495	-0.157618	-5.94634e-05	2	-0.000148397	9.37252e-09
2	1	0	1	1	74.1144	-0.154163	-0.154275	-6.83624e-05	2	-0.000148404	1.05466e-08
2	1	0	0	1	74.281	-0.150831	-0.150956	-7.70712e-05	2	-0.000148412	1.16344e-08
2	1	0	1	1	74.4476	-0.147499	-0.147662	-9.27286e-05	2	-0.000148423	1.36924e-08
2	1	0	0	1	74.6142	-0.144167	-0.144311	-0.000106708	2	-0.000148435	1.53991e-08
2	1	0	1	1	74.7808	-0.140835	-0.140974	-0.000123864	2	-0.000148451	1.74617e-08
2	1	0	0	1	74.9474	-0.137503	-0.137655	-0.000141369	2	-0.000148469	1.94602e-08
2	1	0	1	1	75.114	-0.134171	-0.134311	-0.000158135	2	-0.00014849	2.12392e-08
2	1	0	0	1	75.2806	-0.130839	-0.130987	-0.000174897	2	-0.000148514	2.29092e-08
2	1	0	1	1	75.4472	-0.127507	-0.127645	-0.000190511	2	-0.00014854	2.43178e-08
2	1	0	0	1	75.6138	-0.124175	-0.124308	-0.000204976	2	-0.000148569	2.54802e-08
2	1	0	1	1	75.7804	-0.120843	-0.12096	-0.000219336	2	-0.000148601	2.65309e-08
2	1	0	0	1	75.947	-0.117511	-0.117632	-0.000232572	2	-0.000148635	2.73579e-08
2	1	0	1	1	76.1136	-0.114179	-0.114286	-0.000243748	2	-0.00014867	2.78571e-08
2	1	0	0	1	76.2802	-0.110847	-0.110958	-0.000255505	2	-0.000148708	2.83503e-08
2	1	0	1	1	76.4468	-0.107515	-0.107636	-0.000264498	2	-0.000148747	2.84697e-08
2	1	0	0	1	76.6134	-0.104183	-0.104313	-0.00027444	2	-0.000148788	2.86275e-08
2	1	0	1	1	76.78	-0.100851	-0.100995	-0.000281287	2	-0.000148831	2.84087e-08
2	1	0	0	1	76.9466	-0.097519	-0.0976464	-0.00028879	2	-0.000148874	2.81993e-08
2	1	0	1	1	77.1132	-0.0941874	-0.094319	-0.000295518	2	-0.000148919	2.78729e-08
2	1	0	0	1	77.2798	-0.0908554	-0.0909674	-0.000301032	2	-0.000148965	2.73841e-08
2	1	0	1	1	77.4464	-0.0875233	-0.0876549	-0.000306206	2	-0.000149011	2.68404e-08
2	1	0	0	1	77.613	-0.0841912	-0.0843554	-0.00031133	2	-0.000149059	2.62624e-08
2	1	0	1	1	77.7796	-0.0808592	-0.0810016	-0.000315293	2	-0.000149107	2.55393e-08
2	1	0	0	1	77.9462	-0.0775271	-0.0776927	-0.000318802	2	-0.000149156	2.47686e-08
2	1	0	1	1	78.1128	-0.0741955	-0.0743542	-0.000322172	2	-0.000149205	2.39549e-08
2	1	0	0	1	78.2794	-0.0708634	-0.0710223	-0.000324167	2	-0.000149255	2.30231e-08
2	1	0	1	1	78.446	-0.0675314	-0.0676806	-0.000326469	2	-0.000149306	2.20956e-08
2	1	0	0	1	78.6126	-0.0641993	-0.0643653	-0.00032812	2	-0.000149356	2.11196e-08
2	1	0	1	1	78.7792	-0.0608672	-0.0610416	-0.000329832	2	-0.000149407	2.01335e-08
2	1	0	0	1	78.9458	-0.0575352	-0.0576925	-0.000331022	2	-0.000149458	1.90975e-08
2	1	0	1	1	79.1124	-0.0542031	-0.0543828	-0.000331303	2	-0.00014951	1.80172e-08
2	1	0	1	1	79.2791	-0.0508693	-0.051035	-0.000332656	2	-0.000149561	1.69771e-08
2	1	0	0	1	79.4457	-0.0475372	-0.0477111	-0.000333414	2	-0.000149613	1.59075e-08
2	1	0	1	1	79.6123	-0.0442051	-0.0443934	-0.000333187	2	-0.000149664	1.47913e-08
2	1	0	0	1	79.7789	-0.0408731	-0.0410303	-0.000332719	2	-0.000149716	1.36516e-08
2	1	0	1	1	79.9455	-0.037541	-0.0376984	-0.000332528	2	-0.000149767	1.25358e-08
2	1	0	0	1	80.1121	-0.034209	-0.0343697	-0.000331817	2	-0.000149819	1.14044e-08
2	1	0	1	1	80.2787	-0.0308773	-0.0310405	-0.000331761	2	-0.00014987	1.0298e-08
2	1	0	0	1	80.4453	-0.0275453	-0.0277004	-0.000330442	2	-0.000149921	9.15335e-09
2	1	0	1	1	80.6119	-0.0242132	-0.0243633	-0.000329645	2	-0.000149973	8.03123e-09
2	1	0	0	1	80.7785	-0.0208812	-0.0210221	-0.000327768	2	-0.000150023	6.89037e-09
2	1	0	1	1	80.9451	-0.0175491	-0.0177198	-0.000327378	2	-0.000150074	5.80108e-09
2	1	0	0	1	81.1117	-0.014217	-0.0143754	-0.000325856	2	-0.000150125	4.68432e-09
2	1	0	1	1	81.2783	-0.010885	-0.0110449	-0.000324088	2	-0.000150175	3.57953e-09
2	1	0	0	1	81.4449	-0.00755335	-0.00772137	-0.000321858	2	-0.000150225	2.48518e-09
2	1	0	1	1	81.6115	-0.00422128	-0.00439093	-0.00031984	2	-0.000150274	1.40439e-09
2	1	0	0	1	81.7781	-0.000876863	-0.00105353	-0.000317535	2	-0.000150324	3.34533e-10
2	1	0	1	1	81.9447	0.00244284	0.00227929	-0.000315122	2	-0.000150372	7.18255e-10
2	1	0	0	1	82.1113	0.0057749	0.00563491	-0.000313003	2	-0.000150421	1.76375e-09
2	1	0	1	1	82.2779	0.00910696	0.00897487	-0.000310611	2	-0.000150469	2.78769e-09
2	1	0	0	1	82.4446	0.0124408	0.012312	-0.000307686	2	-0.000150516	3.78822e-09
2	1	0	1	1	82.6112	0.0157729	0.0156697	-0.000304987	2	-0.000150564	4.77905e-09
2	1	0	0	1	82.7778	0.0191049	0.0189981	-0.000301706	2	-0.00015061	5.73183e-09
2	1	0	1	1	82.9444	0.022437	0.0223215	-0.000299266	2	-0.000150656	6.68007e-09
2	1	0	0	1	83.111	0.025769	0.0256566	-0.000296029	2	-0.000150702	7.59509e-09
2	1	0	1	1	83.2776	0.0291011	0.0289855	-0.00029313	2	-0.000150747	8.49652e-09
2	1	0	0	1	83.4442	0.0324332	0.0323194	-0.000289152	2	-0.000150792	9.3452e-09
2	1	0	1	1	83.6108	0.0357648	0.0356599	-0.000285849	2	-0.000150836	1.01933e-08
2	1	0	0	1	83.7774	0.0390969	0.0389698	-0.000282269	2	-0.000150879	1.1e-08
2	1	0	1	1	83.944	0.0424289	0.0423135	-0.000278481	2	-0.000150922	1.17835e-08
2	1	0	0	1	84.1106	0.045761	0.0456688	-0.000274174	2	-0.000150965	1.25212e-08
2	1	0	1	1	84.2772	0.049093	0.0489994	-0.000270302	2	-0.000151006	1.32446e-08
2	1	0	0	1	84.4438	0.0524251	0.0523492	-0.000266209	2	-0.000151047	1.39358e-08
2	1	0	1	1	84.6104	0.0557567	0.0556679	-0.000261461	2	-0.000151087	1.4555e-08
2	1	0	0	1	84.777	0.0590888	0.0590032	-0.000258122	2	-0.000151127	1.523e-08
2	1	0	1	1	84.9436	0.0624208	0.0623383	-0.000253008	2	-0.000151165	1.57721e-08
2	1	0	0	1	85.1102	0.0657529	0.0656597	-0.000249034	2	-0.000151204	1.63515e-08
2	1	0	1	1	85.2768	0.069085	0.0689856	-0.000244497	2	-0.000151241	1.68668e-08
2	1	0	0	1	85.4434	0.072417	0.0723139	-0.000239848	2	-0.000151278	1.73443e-08
2	1	0	1	1	85.61	0.0757486	0.0756482	-0.000234775	2	-0.000151313	1.77603e-08
2	1	0	0	1	85.7766	0.0790807	0.0789637	-0.000229935	2	-0.000151348	1.81565e-08
2	1	0	1	1	85.9432	0.0824128	0.0823133	-0.000225187	2	-0.000151383	1.85359e-08
2	1	0	0	1	86.1098	0.0857448	0.0856184	-0.000220342	2	-0.000151416	1.88653e-08
2	1	0	1	1	86.2764	0.0890769	0.0889722	-0.000215234	2	-0.000151449	1.91498e-08
2	1	0	0	1	86.443	0.0924089	0.0922927	-0.000209988	2	-0.00015148	1.93803e-08
2	1	0	1	1	86.6096	0.095741	0.0956371	-0.000204379	2	-0.000151511	1.95462e-08
2	1	0	0	1	86.7512	0.0985726	0.0984772	-0.000200043	2	-0.000151537	1.96997e-08
2	0	0	0	1	86.8184	0.0999061	0.0998108	-0.000199043	2	-0.000151549	1.98667e-08
2	0	0	1	1	86.91	0.0980739	0.0979643	-0.00024467	2	-0.000151573	2.39689e-08
2	0	0	0	1	87.0766	0.0947423	0.0946198	-0.000285152	2	-0.000151621	2.6981e-08
2	0	0	1	1	87.2432	0.0914102	0.0912902	-0.000317466	2	-0.000151675	2.89815e-08
2	0	0	0	1	87.4098	0.0880782	0.0879518	-0.000346315	2	-0.000151734	3.0459e-08
2	0	0	1	1	87.5764	0.0847461	0.0846272	-0.000372838	2	-0.000151797	3.15522e-08
2	0	0	0	1	87.743	0.081414	0.0813071	-0.000396893	2	-0.000151865	3.22703e-08
2	0	0	1	1	87.9096	0.078082	0.0779779	-0.000419675	2	-0.000151937	3.27254e-08
2	0	0	0	1	88.0762	0.0747503	0.0746393	-0.000440962	2	-0.000152012	3.29131e-08
2	0	0	1	1	88.2428	0.0714183	0.0712988	-0.000460374	2	-0.000152091	3.28241e-08
2	0	0	0	1	88.4094	0.0680862	0.0679776	-0.000479337	2	-0.000152173	3.25841e-08
2	0	0	1	1	88.576	0.0647542	0.0646407	-0.000497168	2	-0.000152258	3.21373e-08
2	0	0	0	1	88.7426	0.0614221	0.0613273	-0.000514404	2	-0.000152346	3.1547e-08
2	0	0	1	1	88.9092	0.05809	0.057993	-0.000530014	2	-0.000152437	3.07371e-08
2	0	0	0	1	89.0758	0.054758	0.054651	-0.000546287	2	-0.00015253	2.98551e-08
2	0	0	0	1	89.2425	0.0514241	0.0513211	-0.000560875	2	-0.000152626	2.87847e-08
2	0	0	1	1	89.4091	0.0480921	0.0479841	-0.000575025	2	-0.000152724	2.7592e-08
2	0	0	0	1	89.5757	0.04476	0.0446543	-0.000588953	2	-0.000152825	2.62993e-08
2	0	0	1	1	89.7423	0.041428	0.0412929	-0.000602543	2	-0.000152928	2.48808e-08
2	0	0	0	1	89.9089	0.0380959	0.0379752	-0.000614839	2	-0.000153033	2.33486e-08
2	0	0	1	1	90.0755	0.0347638	0.0346365	-0.000627506	2	-0.000153141	2.17346e-08
2	0	0	0	1	90.2421	0.0314322	0.0312934	-0.000639949	2	-0.00015325	2.00262e-08
2	0	0	1	1	90.4087	0.0281002	0.0279731	-0.000651325	2	-0.000153361	1.82196e-08
2	0	0	0	1	90.5753	0.0247681	0.0246164	-0.000662816	2	-0.000153474	1.63162e-08
2	0	0	1	1	90.7419	0.021436	0.0213127	-0.000673476	2	-0.000153589	1.43536e-08
2	0	0	0	1	90.9085	0.018104	0.0179877	-0.000683763	2	-0.000153706	1.22993e-08
2	0	0	1	1	91.0751	0.0147719	0.0146703	-0.000694383	2	-0.000153825	1.01868e-08
2	0	0	0	1	91.2417	0.0114403	0.0113214	-0.000704786	2	-0.000153945	7.97919e-09
2	0	0	1	1	91.4083	0.00810823	0.00796275	-0.00071494	2	-0.000154067	5.69289e-09
2	0	0	0	1	91.5749	0.00477617	0.00465631	-0.000723972	2	-0.000154191	3.37104e-09
2	0	0	1	1	91.7415	0.00144411	0.00129581	-0.000734117	2	-0.000154316	9.51276e-10
2	0	0	0	1	91.9081	-0.00188795	-0.00206075	-0.000743595	2	-0.000154443	1.53236e-09
2	0	0	1	1	92.0747	-0.00522001	-0.00536485	-0.000752081	2	-0.000154571	4.0348e-09
2	0	0	0	1	92.2414	-0.00855385	-0.00870258	-0.000761097	2	-0.000154701	6.62351e-09
2	0	0	1	1	92.408	-0.0118859	-0.0120466	-0.000769679	2	-0.000154832	9.272e-09
2	0	0	0	1	92.5746	-0.015218	-0.0153906	-0.000778096	2	-0.000154965	1.19754e-08
2	0	0	1	1	92.7412	-0.01855	-0.0187096	-0.000786048	2	-0.000155099	1.47066e-08
2	0	0	0	1	92.9078	-0.0218821	-0.0220455	-0.000794464	2	-0.000155235	1.75144e-08
2	0	0	1	1	93.0744	-0.0252142	-0.0253634	-0.000802394	2	-0.000155371	2.03515e-08
2	0	0	0	1	93.241	-0.0285462	-0.0287024	-0.000810659	2	-0.00015551	2.32678e-08
2	0	0	1	1	93.4076	-0.0318783	-0.0320423	-0.000818291	2	-0.000155649	2.62199e-08
2	0	0	0	1	93.5742	-0.0352099	-0.0353694	-0.000826787	2	-0.00015579	2.92429e-08
2	0	0	1	1	93.7408	-0.038542	-0.0386913	-0.000834286	2	-0.000155932	3.22796e-08
2	0	0	0	1	93.9074	-0.041874	-0.042056	-0.000842023	2	-0.000156076	3.54121e-08
2	0	0	1	1	94.074	-0.0452061	-0.0453873	-0.000849816	2	-0.000156221	3.85709e-08
2	0	0	0	1	94.2406	-0.0485382	-0.0487095	-0.000856914	2	-0.000156367	4.17398e-08
2	0	0	1	1	94.4072	-0.0518702	-0.052053	-0.000864621	2	-0.000156514	4.50062e-08
2	0	0	0	1	94.5738	-0.0552018	-0.0553854	-0.000872239	2	-0.000156663	4.83093e-08
2	0	0	1	1	94.7404	-0.0585339	-0.0586977	-0.00087971	2	-0.000156813	5.16369e-08
2	0	0	0	1	94.907	-0.061866	-0.0620422	-0.000886942	2	-0.000156964	5.50279e-08
2	0	0	1	1	95.0736	-0.065198	-0.065368	-0.000894189	2	-0.000157116	5.84514e-08
2	0	0	0	1	95.2402	-0.0685301	-0.0687024	-0.000901632	2	-0.00015727	6.19443e-08
2	0	0	1	1	95.4068	-0.0718622	-0.0720422	-0.00090821	2	-0.000157425	6.54295e-08
2	0	0	0	1	95.5734	-0.0751938	-0.0753716	-0.000915223	2	-0.000157581	6.89818e-08
2	0	0	1	1	95.74	-0.0785258	-0.0787098	-0.000923263	2	-0.000157738	7.26699e-08
2	0	0	0	1	95.9232	-0.0821896	-0.0823494	-0.000929924	2	-0.000157913	7.65787e-08
2	0	0	0	1	96.1065	-0.0858559	-0.0860006	-0.000937734	2	-0.00015809	8.06457e-08
2	0	0	1	1	96.2731	-0.089188	-0.0893408	-0.000945454	2	-0.000158251	8.44676e-08
2	0	0	0	1	96.4397	-0.09252	-0.0926685	-0.000952571	2	-0.000158413	8.82733e-08
2	0	0	1	1	96.6064	-0.0958539	-0.0960111	-0.000960428	2	-0.000158577	9.22118e-08
2	0	0	0	1	96.773	-0.099186	-0.0993367	-0.000968181	2	-0.000158742	9.61759e-08
2	0	0	1	1	96.9396	-0.102518	-0.102652	-0.000975817	2	-0.000158908	1.00169e-07
2	0	0	0	1	97.1062	-0.10585	-0.105982	-0.000983997	2	-0.000159075	1.04286e-07
2	0	0	1	1	97.2728	-0.109182	-0.109315	-0.000992037	2	-0.000159244	1.08444e-07
2	0	0	0	1	97.4394	-0.112514	-0.112628	-0.001001	2	-0.000159414	1.12741e-07
2	0	0	1	1	97.606	-0.115846	-0.11597	-0.00100944	2	-0.000159586	1.17065e-07
2	0	0	0	1	97.7726	-0.119178	-0.119312	-0.00101921	2	-0.000159759	1.21605e-07
2	0	0	1	1	97.9392	-0.12251	-0.122646	-0.00102858	2	-0.000159934	1.2615e-07
2	0	0	0	1	98.1058	-0.125842	-0.125986	-0.00103914	2	-0.000160111	1.30916e-07
2	0	0	1	1	98.2724	-0.129174	-0.129327	-0.00105009	2	-0.000160289	1.35805e-07
2	0	0	0	1	98.439	-0.132506	-0.132663	-0.00106199	2	-0.000160469	1.40886e-07
2	0	0	1	1	98.6056	-0.135838	-0.135996	-0.00107478	2	-0.000160652	1.46165e-07
2	0	0	0	1	98.7722	-0.13917	-0.13934	-0.0010883	2	-0.000160836	1.51643e-07
2	0	0	1	1	98.9388	-0.142502	-0.142672	-0.00110329	2	-0.000161023	1.57408e-07
2	0	0	0	1	99.1054	-0.145834	-0.14601	-0.00112041	2	-0.000161213	1.6359e-07
2	0	0	1	1	99.272	-0.149166	-0.149329	-0.00113871	2	-0.000161406	1.70043e-07
2	0	0	0	1	99.4386	-0.152498	-0.152666	-0.00115902	2	-0.000161602	1.76943e-07
2	0	0	1	1	99.6052	-0.15583	-0.15597	-0.00118293	2	-0.000161801	1.84501e-07
2	0	0	0	1	99.7718	-0.159162	-0.159312	-0.00120976	2	-0.000162005	1.9273e-07
2	0	0	1	1	99.9384	-0.162494	-0.162658	-0.00124047	2	-0.000162214	2.01773e-07
2	0	0	0	1	100.105	-0.165826	-0.165999	-0.00127298	2	-0.000162428	2.11313e-07
2	0	0	1	1	100.272	-0.169158	-0.169346	-0.00131084	2	-0.000162648	2.21986e-07
2	0	0	0	1	100.438	-0.17249	-0.172664	-0.0013525	2	-0.000162874	2.33528e-07
2	0	0	1	1	100.605	-0.175822	-0.175992	-0.00139939	2	-0.000163108	2.46281e-07
2	0	0	0	1	100.771	-0.179154	-0.179334	-0.00145061	2	-0.000163351	2.60144e-07
2	0	0	1	1	100.938	-0.182486	-0.18268	-0.00150826	2	-0.000163602	2.75528e-07
2	0	0	0	1	101.105	-0.185818	-0.185994	-0.00156948	2	-0.000163863	2.91914e-07
2	0	0	1	1	101.271	-0.18915	-0.189331	-0.00163433	2	-0.000164135	3.09428e-07
2	0	0	0	1	101.438	-0.192482	-0.192644	-0.00170556	2	-0.000164418	3.28566e-07
2	0	0	1	1	101.604	-0.195814	-0.195968	-0.00177531	2	-0.000164713	3.47904e-07
2	0	0	0	1	101.771	-0.199146	-0.199303	-0.00185078	2	-0.00016502	3.68867e-07
2	0	0	1	1	101.938	-0.202478	-0.202629	-0.00192402	2	-0.00016534	3.89862e-07
2	0	0	0	1	102.104	-0.20581	-0.20598	-0.00199394	2	-0.000165671	4.10712e-07
2	0	0	1	1	102.271	-0.209142	-0.209291	-0.00206225	2	-0.000166014	4.31612e-07
2	0	0	0	1	102.437	-0.212474	-0.212656	-0.00212696	2	-0.000166368	4.5231e-07
2	0	0	1	1	102.604	-0.215806	-0.215992	-0.00218226	2	-0.000166732	4.7135e-07
2	0	0	0	1	102.771	-0.219138	-0.2193	-0.0022262	2	-0.000167104	4.88205e-07
2	0	0	1	1	102.937	-0.22247	-0.222661	-0.00226332	2	-0.000167483	5.03953e-07
2	0	0	0	1	103.104	-0.225802	-0.225992	-0.00229415	2	-0.000167867	5.18459e-07
2	0	0	1	1	103.27	-0.229134	-0.229313	-0.00231325	2	-0.000168256	5.30459e-07
2	0	0	0	1	103.437	-0.232466	-0.232646	-0.00232486	2	-0.000168647	5.40869e-07
2	0	0	1	1	103.604	-0.235798	-0.23597	-0.00232803	2	-0.000169039	5.49345e-07
2	0	0	0	1	103.77	-0.23913	-0.239291	-0.00232874	2	-0.000169432	5.57247e-07
2	0	0	1	1	103.937	-0.242462	-0.242624	-0.00232516	2	-0.000169824	5.64139e-07
2	0	0	1	1	104.103	-0.245796	-0.245976	-0.0023156	2	-0.000170216	5.69581e-07
2	0	0	0	1	104.27	-0.249128	-0.249304	-0.00230595	2	-0.000170605	5.74882e-07
2	0	0	1	1	104.437	-0.25246	-0.252644	-0.00229512	2	-0.000170993	5.79847e-07
2	0	0	0	1	104.603	-0.255792	-0.255963	-0.00228227	2	-0.000171379	5.84177e-07
2	0	0	1	1	104.77	-0.259124	-0.259282	-0.00226969	2	-0.000171763	5.88489e-07
2	0	0	0	1	104.936	-0.262456	-0.262602	-0.00226173	2	-0.000172145	5.93934e-07
2	0	0	1	1	105.103	-0.265788	-0.265957	-0.00224727	2	-0.000172526	5.97679e-07
2	0	0	0	1	105.27	-0.26912	-0.269289	-0.00223824	2	-0.000172904	6.02733e-07
2	0	0	1	1	105.436	-0.272452	-0.272617	-0.00222644	2	-0.000173281	6.06964e-07
2	0	0	0	1	105.603	-0.275784	-0.275939	-0.00221879	2	-0.000173656	6.12249e-07
2	0	0	1	1	105.769	-0.279116	-0.279267	-0.00221282	2	-0.000174029	6.17968e-07
2	0	0	0	1	105.936	-0.282448	-0.282581	-0.00220547	2	-0.000174402	6.23222e-07
2	0	0	1	1	106.103	-0.28578	-0.285917	-0.00220095	2	-0.000174774	6.29289e-07
2	0	0	0	1	106.269	-0.289112	-0.28925	-0.00219605	2	-0.000175144	6.35207e-07
2	0	0	1	1	106.436	-0.292444	-0.292601	-0.00219096	2	-0.000175514	6.41078e-07
2	0	0	0	1	106.602	-0.295776	-0.295929	-0.00218909	2	-0.000175884	6.47817e-07
2	0	0	1	1	106.769	-0.299108	-0.29928	-0.00218523	2	-0.000176253	6.53996e-07
2	0	0	0	1	106.936	-0.30244	-0.302635	-0.00218357	2	-0.000176621	6.60824e-07
2	0	0	1	1	107.102	-0.305772	-0.305943	-0.00218142	2	-0.00017699	6.6739e-07
2	0	0	0	1	107.269	-0.309106	-0.309276	-0.0021824	2	-0.000177358	6.74963e-07
2	0	0	1	1	107.436	-0.312438	-0.312615	-0.00218181	2	-0.000177726	6.82066e-07
2	0	0	0	1	107.602	-0.31577	-0.315941	-0.00218496	2	-0.000178095	6.9032e-07
2	0	0	1	1	107.769	-0.319102	-0.319265	-0.00218566	2	-0.000178463	6.97804e-07
2	0	0	0	1	107.935	-0.322434	-0.322592	-0.00218934	2	-0.000178832	7.06264e-07
2	0	0	1	1	108.102	-0.325766	-0.325905	-0.00219194	2	-0.000179202	7.14366e-07
2	0	0	0	1	108.269	-0.329098	-0.329264	-0.00219688	2	-0.000179572	7.23354e-07
2	0	0	1	1	108.435	-0.33243	-0.332596	-0.00219981	2	-0.000179943	7.31647e-07
2	0	0	0	1	108.602	-0.335762	-0.335922	-0.00220441	2	-0.000180314	7.40511e-07
2	0	0	1	1	108.768	-0.339094	-0.339275	-0.00221038	2	-0.000180686	7.49927e-07
2	0	0	0	1	108.935	-0.342426	-0.342641	-0.00221645	2	-0.00018106	7.59447e-07
2	0	0	1	1	109.102	-0.345758	-0.34596	-0.00222152	2	-0.000181434	7.68555e-07
2	0	0	0	1	109.268	-0.34909	-0.349287	-0.00222876	2	-0.00018181	7.78476e-07
2	0	0	1	1	109.435	-0.352422	-0.352647	-0.00223642	2	-0.000182186	7.88669e-07
2	0	0	0	1	109.601	-0.355754	-0.355955	-0.00224505	2	-0.000182564	7.99136e-07
2	0	0	1	1	109.768	-0.359086	-0.359291	-0.00225434	2	-0.000182944	8.09965e-07
2	0	0	0	1	109.935	-0.362418	-0.362616	-0.00226277	2	-0.000183325	8.20515e-07
2	0	0	1	1	110.101	-0.36575	-0.365917	-0.00227205	2	-0.000183707	8.31381e-07
2	0	0	0	1	110.268	-0.369082	-0.369248	-0.00228263	2	-0.000184091	8.42856e-07
2	0	0	1	1	110.434	-0.372414	-0.372616	-0.00229171	2	-0.000184477	8.53927e-07
2	0	0	0	1	110.601	-0.375746	-0.37594	-0.00230239	2	-0.000184864	8.65561e-07
2	0	0	1	1	110.768	-0.379078	-0.379265	-0.00231247	2	-0.000185253	8.77039e-07
2	0	0	0	1	110.934	-0.38241	-0.382606	-0.0023247	2	-0.000185644	8.89445e-07
2	0	0	1	1	111.101	-0.385742	-0.385959	-0.00233496	2	-0.000186036	9.01197e-07
2	0	0	0	1	111.267	-0.389074	-0.389271	-0.00234592	2	-0.000186431	9.13201e-07
2	0	0	1	1	111.434	-0.392406	-0.392624	-0.00235763	2	-0.000186827	9.25664e-07
2	0	0	0	1	111.601	-0.395738	-0.39596	-0.00237281	2	-0.000187226	9.39539e-07
2	0	0	1	1	111.767	-0.39907	-0.399271	-0.00238334	2	-0.000187626	9.51596e-07
2	0	0	0	1	111.934	-0.402402	-0.402623	-0.00239753	2	-0.000188029	9.65302e-07
2	0	0	1	1	112.1	-0.405734	-0.405922	-0.00241073	2	-0.000188434	9.78568e-07
2	0	0	0	1	112.267	-0.409066	-0.409267	-0.00242364	2	-0.000188841	9.91915e-07
2	0	0	1	1	112.434	-0.412398	-0.412595	-0.00243787	2	-0.00018925	1.00585e-06
2	0	0	0	1	112.6	-0.41573	-0.41593	-0.00245369	2	-0.000189662	1.02056e-06
2	0	0	1	1	112.767	-0.419062	-0.41927	-0.00247009	2	-0.000190077	1.03563e-06
2	0	0	0	1	112.933	-0.422394	-0.422616	-0.0024862	2	-0.000190494	1.05071e-06
2	0	0	1	1	113.1	-0.425726	-0.425915	-0.0025004	2	-0.000190914	1.06496e-06
2	0	0	0	1	113.267	-0.429058	-0.429251	-0.00251818	2	-0.000191336	1.08093e-06
2	0	0	1	1	113.433	-0.43239	-0.432581	-0.00253495	2	-0.000191761	1.09657e-06
2	0	0	0	1	113.6	-0.435722	-0.43591	-0.00255113	2	-0.000192189	1.11207e-06
2	0	0	1	1	113.766	-0.439054	-0.439252	-0.00256842	2	-0.00019262	1.12819e-06
2	0	0	0	1	113.933	-0.442386	-0.442569	-0.0025878	2	-0.000193054	1.14528e-06
2	0	0	1	1	114.1	-0.445718	-0.445918	-0.00260556	2	-0.000193491	1.16187e-06
2	0	0	0	1	114.266	-0.44905	-0.449225	-0.00262539	2	-0.000193931	1.17939e-06
2	0	0	1	1	114.433	-0.452382	-0.452567	-0.00264549	2	-0.000194374	1.19726e-06
2	0	0	0	1	114.599	-0.455714	-0.455893	-0.00266637	2	-0.000194821	1.21558e-06
2	0	0	0	1	114.766	-0.459048	-0.459225	-0.00268869	2	-0.000195271	1.23471e-06
2	0	0	1	1	114.933	-0.46238	-0.462557	-0.00270823	2	-0.000195725	1.25271e-06
2	0	0	0	1	115.099	-0.465712	-0.465891	-0.00273322	2	-0.000196183	1.27338e-06
2	0	0	1	1	115.266	-0.469044	-0.469254	-0.00275604	2	-0.000196644	1.29328e-06
2	0	0	0	1	115.432	-0.472376	-0.472588	-0.00277834	2	-0.00019711	1.31301e-06
2	0	0	1	1	115.599	-0.475708	-0.475918	-0.00280379	2	-0.000197579	1.33437e-06
2	0	0	0	1	115.766	-0.47904	-0.479253	-0.00282812	2	-0.000198052	1.35539e-06
2	0	0	1	1	115.932	-0.482372	-0.482576	-0.00285603	2	-0.00019853	1.37825e-06
2	0	0	0	1	116.099	-0.485704	-0.485911	-0.00288007	2	-0.000199012	1.39946e-06
2	0	0	1	1	116.265	-0.489036	-0.489249	-0.00291165	2	-0.000199499	1.42452e-06
2	0	0	0	1	116.432	-0.492368	-0.492579	-0.00294041	2	-0.00019999	1.44838e-06
2	0	0	1	1	116.599	-0.4957	-0.495889	-0.00296751	2	-0.000200487	1.47156e-06
2	0	0	0	1	116.765	-0.499032	-0.499225	-0.00299771	2	-0.000200988	1.49653e-06
2	0	0	1	1	116.932	-0.502364	-0.502571	-0.00302975	2	-0.000201494	1.52267e-06
2	0	0	0	1	117.098	-0.505696	-0.505895	-0.00306082	2	-0.000202006	1.54845e-06
2	0	0	1	1	117.265	-0.509028	-0.509247	-0.00309615	2	-0.000202523	1.5767e-06
2	0	0	0	1	117.432	-0.51236	-0.51256	-0.00313015	2	-0.000203046	1.60439e-06
2	0	0	1	1	117.598	-0.515692	-0.515904	-0.00316154	2	-0.000203574	1.63105e-06
2	0	0	0	1	117.765	-0.519026	-0.519227	-0.00319622	2	-0.000204108	1.65956e-06
2	0	0	1	1	117.932	-0.522358	-0.522559	-0.00323484	2	-0.000204648	1.69039e-06
2	0	0	0	1	118.098	-0.52569	-0.525902	-0.0032727	2	-0.000205195	1.72112e-06
2	0	0	1	1	118.265	-0.529022	-0.529219	-0.00331288	2	-0.000205748	1.75324e-06
2	0	0	0	1	118.431	-0.532354	-0.532535	-0.003349	2	-0.000206307	1.78346e-06
2	0	0	1	1	118.598	-0.535686	-0.53588	-0.0033911	2	-0.000206873	1.81722e-06
2	0	0	0	1	118.765	-0.539018	-0.539197	-0.00342853	2	-0.000207445	1.84865e-06
2	0	0	1	1	118.931	-0.54235	-0.54253	-0.00347231	2	-0.000208025	1.88383e-06
2	0	0	0	1	119.098	-0.545682	-0.545867	-0.00352137	2	-0.000208612	1.9222e-06
2	0	0	1	1	119.264	-0.549014	-0.549198	-0.00356279	2	-0.000209206	1.95668e-06
2	0	0	0	1	119.431	-0.552346	-0.552549	-0.00360908	2	-0.000209808	1.9942e-06
2	0	0	1	1	119.598	-0.555678	-0.555902	-0.00365749	2	-0.000210418	2.03321e-06
2	0	0	0	1	119.764	-0.55901	-0.559231	-0.00370964	2	-0.000211036	2.07454e-06
2	0	0	1	1	119.931	-0.562342	-0.562524	-0.00375534	2	-0.000211662	2.11247e-06
2	0	0	0	1	120.097	-0.565674	-0.565871	-0.00380471	2	-0.000212297	2.15298e-06
2	0	0	1	1	120.264	-0.569006	-0.569227	-0.00386036	2	-0.00021294	2.19742e-06
2	0	0	0	1	120.431	-0.572338	-0.572546	-0.00391318	2	-0.000213592	2.24048e-06
2	0	0	1	1	120.597	-0.57567	-0.575869	-0.00396388	2	-0.000214252	2.28268e-06
2	0	0	0	1	120.764	-0.579002	-0.579208	-0.00401849	2	-0.000214922	2.32754e-06
2	0	0	1	1	120.93	-0.582334	-0.582531	-0.00407101	2	-0.0002156	2.37149e-06
2	0	0	0	1	121.097	-0.585666	-0.585877	-0.0041295	2	-0.000216287	2.41938e-06
2	0	0	1	1	121.264	-0.588998	-0.589214	-0.00418441	2	-0.000216985	2.46551e-06
2	0	0	0	1	121.43	-0.59233	-0.592544	-0.00424397	2	-0.000217691	2.51474e-06
2	0	0	1	1	121.597	-0.595662	-0.595879	-0.00430162	2	-0.000218408	2.56324e-06
2	0	0	0	1	121.747	-0.59866	-0.598875	-0.00435628	2	-0.00021906	2.60887e-06
2	1	0	1	0	121.822	-0.60016	-0.600356	-0.00438794	2	-0.000219392	2.63432e-06