File: TAP_Report/Data/MB_PB/100 uM MB 10mM PB  second ito_05_CV_C01_2.mpt
EC-Lab ASCII FILE
Nb header lines : 53

Cyclic Voltammetry

Run on channel : 1 (SN 0696)
User :
Electrode connection : standard
Ewe ctrl range : min = -10.00 V, max = 10.00 V
Ewe,I filtering : 50 kHz
Channel : Grounded
Acquisition started on : 05/17/2017 12:39:23
Saved on :
	File : 100 uM MB 10mM PB  second ito_05_CV_C01.mpr
	Directory : \\userfs\st659\w2k\EC-Lab\Data\ITO Characterisation 17-5-17\
	Host : 144.32.136.43
Device : SP-300 (SN 0182)
Address : USB
EC-Lab for windows v10.44 (software)
Internet server v10.44 (firmware)
Command interpretor v10.44 (firmware)
Electrode material :
Initial state :
Electrolyte :
Comments :
Cable : standard
Electrode surface area : 0.001 cm²
Characteristic mass : 0.001 g
Equivalent Weight : 0.000 g/eq.
Density : 0.000 g/cm3
Ei (V)              0.000
vs.                 Eoc
dE/dt               500.000
dE/dt unit          mV/s
E1 (V)              0.100
vs.                 Ref
Step percent        50
N                   10
E range min (V)     -10.000
E range max (V)     10.000
I Range             Auto
I Range min         Unset
I Range max         Unset
I Range init        Unset
Bandwidth           8
E2 (V)              -0.600
vs.                 Ref
nc cycles           2
Reverse Scan        1
Ef (V)              0.000
vs.                 Eoc

mode	ox/red	error	control changes	counter inc.	time/s	control/V	Ewe/V	<I>/mA	cycle number	(Q-Qo)/C	P/W
2	1	0	1	1	411.765	-0.60016	-0.600375	-0.00852829	2	-7.90065e-06	5.12017e-06
2	1	0	0	1	411.768	-0.598328	-0.598558	-0.00748029	2	-7.92791e-06	4.47739e-06
2	1	0	1	1	411.775	-0.595029	-0.595251	-0.00654253	2	-7.97378e-06	3.89445e-06
2	1	0	1	1	411.782	-0.59163	-0.591847	-0.00607886	2	-8.0164e-06	3.59775e-06
2	1	0	0	1	411.788	-0.588331	-0.588539	-0.00577953	2	-8.0553e-06	3.40148e-06
2	1	0	1	1	411.795	-0.585033	-0.585239	-0.00554483	2	-8.09245e-06	3.24505e-06
2	1	0	1	1	411.802	-0.581634	-0.581832	-0.00532565	2	-8.12918e-06	3.09863e-06
2	1	0	0	1	411.808	-0.578335	-0.578541	-0.00515961	2	-8.16358e-06	2.98505e-06
2	1	0	1	1	411.815	-0.575037	-0.575236	-0.00499529	2	-8.19689e-06	2.87347e-06
2	1	0	1	1	411.822	-0.571638	-0.571852	-0.00485654	2	-8.23017e-06	2.77722e-06
2	1	0	0	1	411.828	-0.568339	-0.568572	-0.00471599	2	-8.26156e-06	2.68138e-06
2	1	0	1	1	411.835	-0.56504	-0.565267	-0.00458646	2	-8.29206e-06	2.59258e-06
2	1	0	1	1	411.842	-0.561642	-0.561837	-0.00447066	2	-8.32264e-06	2.51179e-06
2	1	0	0	1	411.848	-0.558343	-0.558558	-0.0043686	2	-8.35161e-06	2.44011e-06
2	1	0	1	1	411.855	-0.555044	-0.555265	-0.00425913	2	-8.37988e-06	2.36495e-06
2	1	0	1	1	411.862	-0.551645	-0.551846	-0.00415448	2	-8.40829e-06	2.29263e-06
2	1	0	0	1	411.868	-0.548347	-0.548541	-0.00406403	2	-8.43521e-06	2.22929e-06
2	1	0	1	1	411.875	-0.545048	-0.545246	-0.0039784	2	-8.46156e-06	2.16921e-06
2	1	0	1	1	411.882	-0.541649	-0.541831	-0.00388242	2	-8.48809e-06	2.10362e-06
2	1	0	0	1	411.888	-0.538351	-0.538532	-0.0038076	2	-8.51329e-06	2.05051e-06
2	1	0	1	1	411.895	-0.535052	-0.53524	-0.00373097	2	-8.53798e-06	1.99696e-06
2	1	0	1	1	411.902	-0.531653	-0.531865	-0.00366067	2	-8.5629e-06	1.94698e-06
2	1	0	0	1	411.908	-0.528354	-0.528563	-0.00358843	2	-8.58664e-06	1.89671e-06
2	1	0	1	1	411.915	-0.525045	-0.525259	-0.00351872	2	-8.6099e-06	1.84824e-06
2	1	0	0	1	411.922	-0.521724	-0.521932	-0.00345105	2	-8.6327e-06	1.80121e-06
2	1	0	0	1	411.928	-0.518325	-0.518499	-0.00338034	2	-8.65573e-06	1.7527e-06
2	1	0	1	1	411.935	-0.515026	-0.515223	-0.00331937	2	-8.67766e-06	1.71022e-06
2	1	0	0	1	411.942	-0.511727	-0.511927	-0.00326569	2	-8.69919e-06	1.67179e-06
2	1	0	0	1	411.948	-0.508329	-0.50852	-0.00320146	2	-8.72098e-06	1.62801e-06
2	1	0	1	1	411.955	-0.50503	-0.505236	-0.00314729	2	-8.74175e-06	1.59012e-06
2	1	0	0	1	411.962	-0.501731	-0.501939	-0.0030904	2	-8.76214e-06	1.55119e-06
2	1	0	0	1	411.968	-0.498333	-0.498531	-0.00303354	2	-8.78276e-06	1.51231e-06
2	1	0	1	1	411.975	-0.495034	-0.495224	-0.00298188	2	-8.80242e-06	1.4767e-06
2	1	0	0	1	411.982	-0.491735	-0.491938	-0.00293492	2	-8.82175e-06	1.4438e-06
2	1	0	0	1	411.988	-0.488336	-0.488547	-0.0028844	2	-8.84133e-06	1.40917e-06
2	1	0	1	1	411.995	-0.485038	-0.485233	-0.0028334	2	-8.86002e-06	1.37486e-06
2	1	0	0	1	412.002	-0.481739	-0.48194	-0.00278806	2	-8.87838e-06	1.34368e-06
2	1	0	0	1	412.008	-0.47834	-0.478537	-0.00273606	2	-8.89696e-06	1.30931e-06
2	1	0	1	1	412.015	-0.475041	-0.475241	-0.00268734	2	-8.91467e-06	1.27714e-06
2	1	0	0	1	412.022	-0.471743	-0.47194	-0.00264801	2	-8.93208e-06	1.2497e-06
2	1	0	0	1	412.028	-0.468344	-0.468532	-0.00260032	2	-8.94973e-06	1.21833e-06
2	1	0	1	1	412.035	-0.465045	-0.46522	-0.0025495	2	-8.96653e-06	1.18608e-06
2	1	0	0	1	412.042	-0.461746	-0.461918	-0.00251294	2	-8.98305e-06	1.16077e-06
2	1	0	0	1	412.048	-0.458348	-0.45853	-0.00247008	2	-8.99979e-06	1.13261e-06
2	1	0	1	1	412.055	-0.455049	-0.455203	-0.00242482	2	-9.01576e-06	1.10378e-06
2	1	0	0	1	412.062	-0.45175	-0.451921	-0.00238627	2	-9.03144e-06	1.07841e-06
2	1	0	0	1	412.068	-0.448352	-0.448529	-0.00234407	2	-9.04733e-06	1.05138e-06
2	1	0	1	1	412.075	-0.445053	-0.445235	-0.00230739	2	-9.0625e-06	1.02733e-06
2	1	0	0	1	412.082	-0.441754	-0.441948	-0.00226591	2	-9.0774e-06	1.00141e-06
2	1	0	0	1	412.088	-0.4384	-0.43859	-0.00222577	2	-9.09225e-06	9.76202e-07
2	1	0	1	1	412.095	-0.435023	-0.435201	-0.00217795	2	-9.10681e-06	9.47843e-07
2	1	0	0	1	412.102	-0.431725	-0.43192	-0.00214309	2	-9.12089e-06	9.25642e-07
2	1	0	1	1	412.108	-0.428426	-0.428613	-0.002111	2	-9.13475e-06	9.04802e-07
2	1	0	1	1	412.115	-0.425027	-0.425237	-0.00207356	2	-9.14877e-06	8.81755e-07
2	1	0	0	1	412.122	-0.421728	-0.421931	-0.00203279	2	-9.16214e-06	8.57695e-07
2	1	0	1	1	412.128	-0.41843	-0.418646	-0.00199807	2	-9.17525e-06	8.36485e-07
2	1	0	1	1	412.135	-0.415031	-0.415217	-0.00195768	2	-9.1885e-06	8.12861e-07
2	1	0	0	1	412.142	-0.411732	-0.411936	-0.00192066	2	-9.20111e-06	7.9119e-07
2	1	0	1	1	412.148	-0.408433	-0.40862	-0.00188603	2	-9.21348e-06	7.70668e-07
2	1	0	1	1	412.155	-0.405035	-0.405244	-0.00184817	2	-9.22598e-06	7.48958e-07
2	1	0	0	1	412.162	-0.401736	-0.401946	-0.00181395	2	-9.23788e-06	7.29111e-07
2	1	0	1	1	412.168	-0.398437	-0.398641	-0.00177742	2	-9.24954e-06	7.08553e-07
2	1	0	1	1	412.175	-0.395039	-0.395257	-0.00173694	2	-9.26129e-06	6.86538e-07
2	1	0	0	1	412.182	-0.39174	-0.391949	-0.00170001	2	-9.27245e-06	6.66318e-07
2	1	0	1	1	412.188	-0.388441	-0.388642	-0.00166731	2	-9.28337e-06	6.47989e-07
2	1	0	1	1	412.195	-0.385042	-0.385262	-0.0016312	2	-9.29439e-06	6.28438e-07
2	1	0	0	1	412.202	-0.381744	-0.38194	-0.00159088	2	-9.30484e-06	6.07621e-07
2	1	0	1	1	412.208	-0.378445	-0.378617	-0.00155494	2	-9.31503e-06	5.88728e-07
2	1	0	1	1	412.215	-0.375046	-0.375224	-0.00152179	2	-9.32531e-06	5.7101e-07
2	1	0	0	1	412.222	-0.371747	-0.371925	-0.00148631	2	-9.33505e-06	5.52795e-07
2	1	0	1	1	412.228	-0.368449	-0.368606	-0.00144831	2	-9.34454e-06	5.33855e-07
2	1	0	1	1	412.235	-0.36505	-0.365232	-0.00141643	2	-9.35408e-06	5.17324e-07
2	1	0	0	1	412.242	-0.361751	-0.361953	-0.00138038	2	-9.36313e-06	4.99631e-07
2	1	0	1	1	412.248	-0.358452	-0.358634	-0.00134312	2	-9.37192e-06	4.81689e-07
2	1	0	1	1	412.255	-0.355054	-0.355256	-0.0013067	2	-9.38073e-06	4.64213e-07
2	1	0	0	1	412.262	-0.351755	-0.351958	-0.00126908	2	-9.38905e-06	4.46662e-07
2	1	0	1	1	412.268	-0.348423	-0.348603	-0.00122113	2	-9.39707e-06	4.2569e-07
2	1	0	0	1	412.275	-0.345124	-0.345322	-0.00119321	2	-9.40485e-06	4.12041e-07
2	1	0	0	1	412.282	-0.341726	-0.341912	-0.00115413	2	-9.41264e-06	3.94612e-07
2	1	0	1	1	412.288	-0.338427	-0.338599	-0.0011136	2	-9.41994e-06	3.77065e-07
2	1	0	0	1	412.295	-0.335128	-0.335285	-0.00107553	2	-9.42696e-06	3.60609e-07
2	1	0	0	1	412.302	-0.331729	-0.331889	-0.00103417	2	-9.43394e-06	3.43229e-07
2	1	0	1	1	412.308	-0.328431	-0.328588	-0.000996575	2	-9.44046e-06	3.27463e-07
2	1	0	0	1	412.315	-0.325132	-0.325267	-0.000955396	2	-9.4467e-06	3.10759e-07
2	1	0	0	1	412.322	-0.321733	-0.321878	-0.00091316	2	-9.45286e-06	2.93927e-07
2	1	0	1	1	412.328	-0.318434	-0.318609	-0.000875609	2	-9.45858e-06	2.78977e-07
2	1	0	0	1	412.335	-0.315136	-0.315291	-0.000827795	2	-9.46401e-06	2.60996e-07
2	1	0	0	1	412.342	-0.311737	-0.311882	-0.000785115	2	-9.4693e-06	2.44864e-07
2	1	0	1	1	412.348	-0.308438	-0.308597	-0.000735411	2	-9.47414e-06	2.26946e-07
2	1	0	0	1	412.355	-0.305139	-0.305303	-0.000690337	2	-9.47865e-06	2.10762e-07
2	1	0	0	1	412.362	-0.301741	-0.301901	-0.000646437	2	-9.48299e-06	1.9516e-07
2	1	0	1	1	412.368	-0.298442	-0.298609	-0.000593147	2	-9.4869e-06	1.77119e-07
2	1	0	0	1	412.375	-0.295143	-0.295286	-0.000536524	2	-9.49043e-06	1.58428e-07
2	1	0	0	1	412.382	-0.291745	-0.291884	-0.000480637	2	-9.4937e-06	1.40291e-07
2	1	0	1	1	412.388	-0.288446	-0.288588	-0.000429169	2	-9.49652e-06	1.23853e-07
2	1	0	0	1	412.395	-0.285147	-0.285279	-0.000372215	2	-9.49897e-06	1.06185e-07
2	1	0	0	1	412.402	-0.281748	-0.281872	-0.000311845	2	-9.5011e-06	8.79002e-08
2	1	0	1	1	412.408	-0.27845	-0.278577	-0.000250572	2	-9.50276e-06	6.98035e-08
2	1	0	0	1	412.415	-0.275151	-0.275292	-0.000192227	2	-9.50402e-06	5.29185e-08
2	1	0	0	1	412.422	-0.271752	-0.271901	-0.000121031	2	-9.50489e-06	3.29083e-08
2	1	0	1	1	412.428	-0.268453	-0.2686	-4.88781e-05	2	-9.50526e-06	1.31287e-08
2	1	0	0	1	412.435	-0.265155	-0.265301	2.57563e-05	2	-9.50514e-06	6.83317e-09
2	1	0	0	1	412.441	-0.261789	-0.261932	0.000105699	2	-9.50451e-06	2.7686e-08
2	1	0	1	1	412.448	-0.258424	-0.258577	0.000184504	2	-9.50334e-06	4.77085e-08
2	1	0	0	1	412.455	-0.255125	-0.255284	0.000262531	2	-9.50168e-06	6.702e-08
2	1	0	1	1	412.461	-0.251826	-0.251996	0.000347692	2	-9.49947e-06	8.7617e-08
2	1	0	1	1	412.468	-0.248428	-0.248589	0.000438186	2	-9.49659e-06	1.08928e-07
2	1	0	0	1	412.475	-0.245129	-0.245311	0.000532725	2	-9.49319e-06	1.30684e-07
2	1	0	1	1	412.481	-0.24183	-0.241988	0.000631369	2	-9.48915e-06	1.52784e-07
2	1	0	1	1	412.488	-0.238432	-0.238579	0.000740815	2	-9.48428e-06	1.76743e-07
2	1	0	0	1	412.495	-0.235133	-0.235292	0.000838673	2	-9.47887e-06	1.97333e-07
2	1	0	1	1	412.501	-0.231834	-0.232016	0.000944794	2	-9.47278e-06	2.19208e-07
2	1	0	1	1	412.508	-0.228435	-0.228599	0.00106183	2	-9.46575e-06	2.42734e-07
2	1	0	0	1	412.515	-0.225137	-0.225327	0.00117853	2	-9.45817e-06	2.65555e-07
2	1	0	1	1	412.521	-0.221838	-0.221991	0.0012967	2	-9.44978e-06	2.87855e-07
2	1	0	1	1	412.528	-0.218439	-0.2186	0.00142217	2	-9.44033e-06	3.10886e-07
2	1	0	0	1	412.535	-0.21514	-0.215311	0.00153214	2	-9.43038e-06	3.29888e-07
2	1	0	1	1	412.541	-0.211842	-0.211991	0.00166823	2	-9.41962e-06	3.53649e-07
2	1	0	1	1	412.548	-0.208443	-0.208572	0.0017935	2	-9.40764e-06	3.74074e-07
2	1	0	0	1	412.555	-0.205144	-0.20529	0.00190948	2	-9.39522e-06	3.91998e-07
2	1	0	1	1	412.561	-0.201846	-0.202007	0.00203633	2	-9.38199e-06	4.11354e-07
2	1	0	1	1	412.568	-0.198447	-0.198577	0.00217569	2	-9.36747e-06	4.32041e-07
2	1	0	0	1	412.575	-0.195148	-0.195291	0.00228764	2	-9.35254e-06	4.46754e-07
2	1	0	1	1	412.581	-0.191849	-0.191994	0.00241532	2	-9.33682e-06	4.63726e-07
2	1	0	1	1	412.588	-0.188451	-0.188603	0.00252221	2	-9.31982e-06	4.75698e-07
2	1	0	0	1	412.595	-0.185152	-0.185322	0.00265708	2	-9.30253e-06	4.92415e-07
2	1	0	1	1	412.601	-0.181853	-0.181993	0.00277845	2	-9.28438e-06	5.0566e-07
2	1	0	1	1	412.608	-0.178454	-0.178608	0.00289025	2	-9.26491e-06	5.16222e-07
2	1	0	0	1	412.615	-0.175145	-0.175289	0.00299924	2	-9.24528e-06	5.25733e-07
2	1	0	1	1	412.621	-0.171824	-0.171976	0.00310325	2	-9.22495e-06	5.33685e-07
2	1	0	0	1	412.628	-0.168525	-0.168684	0.00319119	2	-9.20397e-06	5.38302e-07
2	1	0	0	1	412.635	-0.165126	-0.165257	0.00328997	2	-9.18172e-06	5.4369e-07
2	1	0	1	1	412.641	-0.161827	-0.161953	0.00337729	2	-9.15954e-06	5.46961e-07
2	1	0	0	1	412.648	-0.158529	-0.158655	0.0034644	2	-9.13678e-06	5.49644e-07
2	1	0	0	1	412.655	-0.15513	-0.155241	0.0035507	2	-9.11273e-06	5.51216e-07
2	1	0	1	1	412.661	-0.151831	-0.151955	0.00362909	2	-9.08885e-06	5.51461e-07
2	1	0	0	1	412.668	-0.148532	-0.148668	0.00367165	2	-9.06457e-06	5.45859e-07
2	1	0	0	1	412.675	-0.145134	-0.145265	0.00373402	2	-9.03917e-06	5.42422e-07
2	1	0	1	1	412.681	-0.141835	-0.141965	0.00377037	2	-9.01422e-06	5.35262e-07
2	1	0	0	1	412.688	-0.138536	-0.138672	0.00381238	2	-8.98901e-06	5.2867e-07
2	1	0	0	1	412.695	-0.135138	-0.135256	0.00386451	2	-8.96272e-06	5.22699e-07
2	1	0	1	1	412.701	-0.131839	-0.131951	0.00387369	2	-8.93699e-06	5.11137e-07
2	1	0	0	1	412.708	-0.12854	-0.128667	0.003897	2	-8.91117e-06	5.01415e-07
2	1	0	0	1	412.715	-0.125141	-0.125242	0.0039064	2	-8.88446e-06	4.89246e-07
2	1	0	1	1	412.721	-0.121843	-0.121951	0.00390909	2	-8.85849e-06	4.76717e-07
2	1	0	0	1	412.728	-0.118544	-0.118652	0.00391432	2	-8.83247e-06	4.6444e-07
2	1	0	0	1	412.735	-0.115145	-0.115246	0.00389517	2	-8.80573e-06	4.48904e-07
2	1	0	1	1	412.741	-0.111846	-0.111943	0.00387756	2	-8.7799e-06	4.34067e-07
2	1	0	0	1	412.748	-0.108548	-0.108651	0.00386871	2	-8.75416e-06	4.20342e-07
2	1	0	0	1	412.755	-0.105149	-0.105261	0.00383591	2	-8.72777e-06	4.03771e-07
2	1	0	1	1	412.761	-0.10185	-0.101968	0.00380392	2	-8.70239e-06	3.87877e-07
2	1	0	0	1	412.768	-0.0985515	-0.0986684	0.00378489	2	-8.67715e-06	3.73449e-07
2	1	0	0	1	412.775	-0.0951528	-0.0952762	0.00375204	2	-8.65135e-06	3.5748e-07
2	1	0	1	1	412.781	-0.0918541	-0.0919558	0.00371199	2	-8.62657e-06	3.41339e-07
2	1	0	0	1	412.788	-0.0885554	-0.0886715	0.00368107	2	-8.602e-06	3.26406e-07
2	1	0	1	1	412.795	-0.0852233	-0.0853364	0.00364361	2	-8.57766e-06	3.10933e-07
2	1	0	1	1	412.801	-0.0818246	-0.0819536	0.00360025	2	-8.55287e-06	2.95054e-07
2	1	0	0	1	412.808	-0.0785258	-0.0786417	0.00354937	2	-8.52912e-06	2.79128e-07
2	1	0	1	1	412.815	-0.0752271	-0.0753525	0.00351284	2	-8.50563e-06	2.64701e-07
2	1	0	1	1	412.821	-0.0718284	-0.0719456	0.0034758	2	-8.4817e-06	2.50069e-07
2	1	0	0	1	412.828	-0.0685297	-0.068654	0.00343591	2	-8.45872e-06	2.35889e-07
2	1	0	1	1	412.835	-0.0652309	-0.0653476	0.003408	2	-8.43596e-06	2.22704e-07
2	1	0	1	1	412.841	-0.0618322	-0.0619497	0.00336432	2	-8.41276e-06	2.08418e-07
2	1	0	0	1	412.848	-0.0585335	-0.05868	0.00333408	2	-8.39049e-06	1.95644e-07
2	1	0	1	1	412.855	-0.0552347	-0.0553752	0.00329853	2	-8.36843e-06	1.82656e-07
2	1	0	1	1	412.861	-0.051836	-0.0519769	0.00327658	2	-8.3459e-06	1.70306e-07
2	1	0	0	1	412.868	-0.0485373	-0.048669	0.00323845	2	-8.32424e-06	1.57612e-07
2	1	0	1	1	412.875	-0.0452385	-0.0453776	0.00320687	2	-8.30279e-06	1.4552e-07
2	1	0	1	1	412.881	-0.0418398	-0.0419653	0.00317902	2	-8.28089e-06	1.33409e-07
2	1	0	0	1	412.888	-0.0385411	-0.0386687	0.00315946	2	-8.25981e-06	1.22172e-07
2	1	0	1	1	412.895	-0.0352423	-0.0353689	0.00312618	2	-8.23889e-06	1.1057e-07
2	1	0	1	1	412.901	-0.0318436	-0.0319787	0.00309493	2	-8.21755e-06	9.89719e-08
2	1	0	0	1	412.908	-0.0285449	-0.0286669	0.00308417	2	-8.19698e-06	8.84137e-08
2	1	0	1	1	412.915	-0.0252462	-0.0253593	0.00305342	2	-8.17654e-06	7.74328e-08
2	1	0	1	1	412.921	-0.0218475	-0.0219574	0.00302608	2	-8.15569e-06	6.64448e-08
2	1	0	0	1	412.928	-0.0185487	-0.0186956	0.00300544	2	-8.13561e-06	5.61886e-08
2	1	0	1	1	412.935	-0.01525	-0.0153919	0.00299283	2	-8.11563e-06	4.60652e-08
2	1	0	1	1	412.941	-0.0118513	-0.0119735	0.00298182	2	-8.09511e-06	3.57028e-08
2	1	0	0	1	412.948	-0.00855252	-0.00868309	0.00296109	2	-8.07532e-06	2.57114e-08
2	1	0	1	1	412.955	-0.00525378	-0.0053731	0.00294536	2	-8.05565e-06	1.58257e-08
2	1	0	1	1	412.961	-0.00185507	-0.00200536	0.0029238	2	-8.0355e-06	5.86328e-09
2	1	0	0	1	412.968	0.00148256	0.00135729	0.00291985	2	-8.01604e-06	3.96308e-09
2	1	0	1	1	412.975	0.00477573	0.0046774	0.00291065	2	-7.99661e-06	1.36143e-08
2	1	0	0	1	412.981	0.00807447	0.00798231	0.0028917	2	-7.97728e-06	2.30825e-08
2	1	0	0	1	412.988	0.0114732	0.0113747	0.00287639	2	-7.95747e-06	3.27181e-08
2	1	0	1	1	412.995	0.0147719	0.0147035	0.00287625	2	-7.9383e-06	4.22909e-08
2	1	0	0	1	413.001	0.0180707	0.0179774	0.00285021	2	-7.91923e-06	5.12392e-08
2	1	0	0	1	413.008	0.0214694	0.0213784	0.00284172	2	-7.89968e-06	6.07514e-08
2	1	0	1	1	413.015	0.0247681	0.024665	0.00283149	2	-7.88079e-06	6.98387e-08
2	1	0	0	1	413.021	0.0280668	0.0279608	0.00282027	2	-7.86194e-06	7.88569e-08
2	1	0	0	1	413.028	0.0314655	0.031364	0.00282086	2	-7.84256e-06	8.84735e-08
2	1	0	1	1	413.035	0.0347643	0.0346662	0.00280934	2	-7.8238e-06	9.7389e-08
2	1	0	0	1	413.041	0.038063	0.037973	0.00280706	2	-7.80507e-06	1.06592e-07
2	1	0	0	1	413.048	0.0414617	0.0413623	0.00279416	2	-7.78584e-06	1.15573e-07
2	1	0	1	1	413.055	0.0447605	0.0446729	0.00279399	2	-7.7672e-06	1.24816e-07
2	1	0	0	1	413.061	0.0480592	0.0479952	0.00279759	2	-7.74857e-06	1.34271e-07
2	1	0	0	1	413.068	0.0514579	0.0513876	0.00277894	2	-7.72943e-06	1.42803e-07
2	1	0	1	1	413.075	0.0547567	0.0547021	0.00277307	2	-7.71093e-06	1.51693e-07
2	1	0	0	1	413.081	0.0580554	0.0580109	0.00276038	2	-7.69247e-06	1.60132e-07
2	1	0	0	1	413.088	0.0614541	0.0613941	0.00276307	2	-7.6735e-06	1.69636e-07
2	1	0	1	1	413.095	0.0647528	0.0646913	0.00275512	2	-7.65511e-06	1.78233e-07
2	1	0	0	1	413.101	0.0680516	0.0679712	0.00275672	2	-7.63672e-06	1.87378e-07
2	1	0	0	1	413.108	0.0714503	0.0713638	0.00275593	2	-7.61777e-06	1.96673e-07
2	1	0	1	1	413.115	0.074749	0.0746478	0.00275455	2	-7.59941e-06	2.05621e-07
2	1	0	0	1	413.121	0.0780478	0.0779663	0.00275066	2	-7.58105e-06	2.14459e-07
2	1	0	0	1	413.128	0.0814465	0.0813772	0.00275285	2	-7.56214e-06	2.24019e-07
2	1	0	1	1	413.135	0.0847452	0.0846646	0.00274638	2	-7.54382e-06	2.32521e-07
2	1	0	0	1	413.141	0.0880662	0.0879733	0.00276013	2	-7.52546e-06	2.42818e-07
2	1	0	1	1	413.148	0.091376	0.0912877	0.00275008	2	-7.50708e-06	2.51048e-07
2	1	0	1	1	413.155	0.0947747	0.0946775	0.00274746	2	-7.48819e-06	2.60122e-07
2	1	0	0	1	413.161	0.0980735	0.0979965	0.00275212	2	-7.46986e-06	2.69699e-07
2	1	0	1	1	413.165	0.0999061	0.0998146	0.00274947	2	-7.45985e-06	2.74437e-07
2	0	0	0	1	413.165	0.100239	0.100127	0.00277724	2	-7.45818e-06	2.78078e-07
2	0	0	1	1	413.169	0.0984067	0.0982948	0.0019022	2	-7.45108e-06	1.86977e-07
2	0	0	0	1	413.176	0.0951079	0.0949616	0.00133673	2	-7.44075e-06	1.26938e-07
2	0	0	0	1	413.182	0.0917092	0.0915529	0.00112545	2	-7.43262e-06	1.03038e-07
2	0	0	1	1	413.189	0.0883994	0.088252	0.000985338	2	-7.42586e-06	8.6958e-08
2	0	0	0	1	413.196	0.0850784	0.0849379	0.000882508	2	-7.41989e-06	7.49584e-08
2	0	0	1	1	413.202	0.0817797	0.0816292	0.000792869	2	-7.41457e-06	6.47212e-08
2	0	0	1	1	413.209	0.078381	0.0782563	0.000705194	2	-7.40968e-06	5.51859e-08
2	0	0	0	1	413.216	0.0750822	0.0749318	0.000627191	2	-7.40548e-06	4.69966e-08
2	0	0	1	1	413.222	0.0717835	0.0716421	0.000556873	2	-7.40177e-06	3.98955e-08
2	0	0	1	1	413.229	0.0683848	0.0682504	0.000489826	2	-7.39841e-06	3.34308e-08
2	0	0	0	1	413.236	0.065086	0.0649572	0.000428518	2	-7.39557e-06	2.78354e-08
2	0	0	1	1	413.242	0.0617873	0.0616548	0.000368049	2	-7.39314e-06	2.2692e-08
2	0	0	1	1	413.249	0.0583886	0.058278	0.000311516	2	-7.39102e-06	1.81546e-08
2	0	0	0	1	413.256	0.0550899	0.0549692	0.000252757	2	-7.38935e-06	1.38939e-08
2	0	0	1	1	413.262	0.0517911	0.0516777	0.000201027	2	-7.38805e-06	1.03886e-08
2	0	0	1	1	413.269	0.0483924	0.0482704	0.000148772	2	-7.38706e-06	7.1813e-09
2	0	0	0	1	413.276	0.0450937	0.0449616	9.47165e-05	2	-7.38645e-06	4.2586e-09
2	0	0	1	1	413.282	0.0417949	0.041625	4.82609e-05	2	-7.38618e-06	2.00886e-09
2	0	0	1	1	413.289	0.0383962	0.0382406	1.23884e-07	2	-7.38621e-06	4.73739e-12
2	0	0	0	1	413.296	0.0350975	0.0349484	-4.58644e-05	2	-7.38655e-06	1.60289e-09
2	0	0	1	1	413.302	0.0317987	0.03164	-9.32878e-05	2	-7.3872e-06	2.95163e-09
2	0	0	1	1	413.309	0.0284	0.0282469	-0.000135869	2	-7.38817e-06	3.83787e-09
2	0	0	0	1	413.316	0.0251013	0.0249427	-0.000180184	2	-7.3894e-06	4.49427e-09
2	0	0	1	1	413.322	0.0218026	0.0216347	-0.000219653	2	-7.39092e-06	4.75212e-09
2	0	0	1	1	413.329	0.0184039	0.0182676	-0.000264233	2	-7.39276e-06	4.82692e-09
2	0	0	0	1	413.336	0.0151051	0.0149786	-0.000303445	2	-7.39482e-06	4.54516e-09
2	0	0	1	1	413.342	0.0118064	0.0116508	-0.000349789	2	-7.39717e-06	4.07531e-09
2	0	0	1	1	413.349	0.00840768	0.00824964	-0.000389148	2	-7.39987e-06	3.21033e-09
2	0	0	0	1	413.356	0.00510893	0.00495987	-0.00042524	2	-7.40275e-06	2.10913e-09
2	0	0	1	1	413.362	0.00181019	0.00161903	-0.000470883	2	-7.40591e-06	7.62374e-10
2	0	0	0	1	413.369	-0.00152187	-0.00172652	-0.000512795	2	-7.40935e-06	8.85348e-10
2	0	0	0	1	413.376	-0.00492057	-0.00511568	-0.000544754	2	-7.41314e-06	2.78679e-09
2	0	0	1	1	413.382	-0.00821931	-0.00840273	-0.000582898	2	-7.41705e-06	4.89793e-09
2	0	0	0	1	413.389	-0.0115181	-0.0117182	-0.000622574	2	-7.42122e-06	7.29544e-09
2	0	0	0	1	413.396	-0.0149168	-0.0151158	-0.000656883	2	-7.42576e-06	9.92932e-09
2	0	0	1	1	413.402	-0.0182155	-0.0184049	-0.000694156	2	-7.43041e-06	1.27759e-08
2	0	0	0	1	413.409	-0.0215142	-0.0217008	-0.000726487	2	-7.43529e-06	1.57654e-08
2	0	0	0	1	413.416	-0.024913	-0.0250927	-0.000766393	2	-7.44056e-06	1.92309e-08
2	0	0	1	1	413.422	-0.0282117	-0.0283929	-0.000805207	2	-7.44593e-06	2.28622e-08
2	0	0	0	1	413.429	-0.0315104	-0.0317107	-0.000841931	2	-7.45156e-06	2.66982e-08
2	0	0	0	1	413.436	-0.0349091	-0.0350879	-0.000876471	2	-7.4576e-06	3.07536e-08
2	0	0	1	1	413.442	-0.0382079	-0.0383869	-0.000910456	2	-7.46368e-06	3.49496e-08
2	0	0	0	1	413.449	-0.0415066	-0.0417096	-0.000952582	2	-7.47002e-06	3.97318e-08
2	0	0	0	1	413.456	-0.0449053	-0.0451078	-0.000985878	2	-7.4768e-06	4.44708e-08
2	0	0	1	1	413.462	-0.0482041	-0.0484054	-0.00101786	2	-7.4836e-06	4.92697e-08
2	0	0	0	1	413.469	-0.0515028	-0.051705	-0.00105807	2	-7.49064e-06	5.47073e-08
2	0	0	0	1	413.476	-0.0549015	-0.0551167	-0.00109576	2	-7.49816e-06	6.03949e-08
2	0	0	1	1	413.482	-0.0582003	-0.0584223	-0.00112799	2	-7.50568e-06	6.58995e-08
2	0	0	0	1	413.489	-0.061499	-0.0617082	-0.00116324	2	-7.51343e-06	7.17816e-08
2	0	0	0	1	413.496	-0.0648977	-0.0650876	-0.00119767	2	-7.52165e-06	7.79537e-08
2	0	0	1	1	413.502	-0.0681965	-0.0683954	-0.00123878	2	-7.52987e-06	8.47269e-08
2	0	0	0	1	413.509	-0.0714952	-0.0716988	-0.00127559	2	-7.53836e-06	9.1458e-08
2	0	0	0	1	413.516	-0.0748939	-0.0751054	-0.00131601	2	-7.54736e-06	9.88397e-08
2	0	0	1	1	413.522	-0.0781926	-0.0783972	-0.00134949	2	-7.55634e-06	1.05796e-07
2	0	0	0	1	413.529	-0.0814914	-0.0816891	-0.00138767	2	-7.56557e-06	1.13357e-07
2	0	0	0	1	413.536	-0.0848901	-0.0850763	-0.00142302	2	-7.57532e-06	1.21065e-07
2	0	0	1	1	413.542	-0.0882221	-0.0883926	-0.00147018	2	-7.58506e-06	1.29953e-07
2	0	0	0	1	413.549	-0.0915209	-0.0916982	-0.00150431	2	-7.59506e-06	1.37942e-07
2	0	0	1	1	413.555	-0.0948196	-0.0950071	-0.00154633	2	-7.60532e-06	1.46913e-07
2	0	0	1	1	413.562	-0.0982183	-0.0983985	-0.00158847	2	-7.61617e-06	1.56304e-07
2	0	0	0	1	413.569	-0.101517	-0.101694	-0.00162603	2	-7.62696e-06	1.65357e-07
2	0	0	1	1	413.575	-0.104816	-0.104995	-0.00167066	2	-7.63804e-06	1.75411e-07
2	0	0	1	1	413.582	-0.108215	-0.108395	-0.00171675	2	-7.64975e-06	1.86087e-07
2	0	0	0	1	413.589	-0.111513	-0.111687	-0.00176053	2	-7.66141e-06	1.96627e-07
2	0	0	1	1	413.595	-0.114812	-0.114994	-0.00181232	2	-7.67339e-06	2.08406e-07
2	0	0	1	1	413.602	-0.118211	-0.118389	-0.00186219	2	-7.68608e-06	2.20464e-07
2	0	0	0	1	413.609	-0.121509	-0.121691	-0.0019104	2	-7.69871e-06	2.32478e-07
2	0	0	1	1	413.615	-0.124808	-0.124979	-0.00196591	2	-7.7117e-06	2.45698e-07
2	0	0	1	1	413.622	-0.128207	-0.128402	-0.00202541	2	-7.72547e-06	2.60068e-07
2	0	0	0	1	413.629	-0.131506	-0.131696	-0.00207862	2	-7.7392e-06	2.73747e-07
2	0	0	1	1	413.635	-0.134804	-0.134973	-0.00213678	2	-7.7533e-06	2.88408e-07
2	0	0	1	1	413.642	-0.138203	-0.138388	-0.00220422	2	-7.76827e-06	3.05037e-07
2	0	0	0	1	413.649	-0.141502	-0.141706	-0.00226858	2	-7.78322e-06	3.21472e-07
2	0	0	1	1	413.655	-0.144801	-0.145014	-0.0023458	2	-7.79863e-06	3.40175e-07
2	0	0	1	1	413.662	-0.148199	-0.148417	-0.00241324	2	-7.81501e-06	3.58166e-07
2	0	0	0	1	413.669	-0.151498	-0.151693	-0.00249197	2	-7.83138e-06	3.78014e-07
2	0	0	1	1	413.675	-0.154797	-0.154973	-0.00256797	2	-7.84828e-06	3.97968e-07
2	0	0	1	1	413.682	-0.158195	-0.158387	-0.00266483	2	-7.86628e-06	4.22076e-07
2	0	0	0	1	413.689	-0.161494	-0.161691	-0.00275691	2	-7.88436e-06	4.45766e-07
2	0	0	1	1	413.695	-0.164793	-0.165002	-0.00285131	2	-7.90307e-06	4.70472e-07
2	0	0	1	1	413.702	-0.168192	-0.168413	-0.002961	2	-7.92304e-06	4.98671e-07
2	0	0	0	1	413.709	-0.17149	-0.171717	-0.00306216	2	-7.94311e-06	5.25826e-07
2	0	0	1	1	413.715	-0.174811	-0.175016	-0.00318027	2	-7.96391e-06	5.56599e-07
2	0	0	0	1	413.722	-0.178121	-0.178335	-0.00330438	2	-7.98551e-06	5.89287e-07
2	0	0	0	1	413.729	-0.18152	-0.181735	-0.00342145	2	-8.00859e-06	6.21798e-07
2	0	0	1	1	413.735	-0.184819	-0.185021	-0.0035464	2	-8.03177e-06	6.56157e-07
2	0	0	0	1	413.742	-0.188117	-0.18834	-0.00367789	2	-8.05581e-06	6.92694e-07
2	0	0	0	1	413.749	-0.191516	-0.191724	-0.00382226	2	-8.08152e-06	7.32817e-07
2	0	0	1	1	413.755	-0.194815	-0.195023	-0.0039501	2	-8.10735e-06	7.70359e-07
2	0	0	0	1	413.762	-0.198114	-0.198317	-0.00410121	2	-8.13413e-06	8.13338e-07
2	0	0	0	1	413.769	-0.201512	-0.20172	-0.00425867	2	-8.16276e-06	8.59059e-07
2	0	0	1	1	413.775	-0.204811	-0.204999	-0.00440493	2	-8.19155e-06	9.03005e-07
2	0	0	0	1	413.782	-0.20811	-0.208302	-0.00455475	2	-8.22132e-06	9.48764e-07
2	0	0	0	1	413.789	-0.211508	-0.211726	-0.00471998	2	-8.25306e-06	9.99343e-07
2	0	0	1	1	413.795	-0.214807	-0.215041	-0.00488186	2	-8.28495e-06	1.0498e-06
2	0	0	0	1	413.802	-0.218106	-0.218319	-0.00503536	2	-8.31789e-06	1.09931e-06
2	0	0	0	1	413.809	-0.221505	-0.221733	-0.00519104	2	-8.35287e-06	1.15103e-06
2	0	0	1	1	413.815	-0.224803	-0.22503	-0.0053589	2	-8.38788e-06	1.20591e-06
2	0	0	0	1	413.822	-0.228102	-0.228325	-0.00551035	2	-8.42395e-06	1.25815e-06
2	0	0	0	1	413.829	-0.231501	-0.231741	-0.00567553	2	-8.46221e-06	1.31525e-06
2	0	0	1	1	413.835	-0.2348	-0.234999	-0.00581443	2	-8.50034e-06	1.36639e-06
2	0	0	0	1	413.842	-0.238098	-0.238313	-0.00595931	2	-8.53941e-06	1.42018e-06
2	0	0	0	1	413.849	-0.241497	-0.24171	-0.00611514	2	-8.58068e-06	1.47809e-06
2	0	0	1	1	413.855	-0.244796	-0.245027	-0.00625096	2	-8.62169e-06	1.53165e-06
2	0	0	0	1	413.862	-0.248095	-0.248314	-0.0063847	2	-8.66359e-06	1.58541e-06
2	0	0	0	1	413.869	-0.251493	-0.25171	-0.00651515	2	-8.70766e-06	1.63993e-06
2	0	0	1	1	413.875	-0.254792	-0.255006	-0.00663819	2	-8.75126e-06	1.69278e-06
2	0	0	0	1	413.882	-0.258091	-0.258309	-0.00674937	2	-8.79562e-06	1.74342e-06
2	0	0	0	1	413.889	-0.261456	-0.261644	-0.00684619	2	-8.84134e-06	1.79127e-06
2	0	0	1	1	413.895	-0.264822	-0.265008	-0.00695496	2	-8.88778e-06	1.84312e-06
2	0	0	0	1	413.902	-0.26812	-0.268326	-0.00705099	2	-8.93418e-06	1.89196e-06
2	0	0	1	1	413.909	-0.271419	-0.271608	-0.00712182	2	-8.98115e-06	1.93434e-06
2	0	0	1	1	413.915	-0.274818	-0.275041	-0.00716467	2	-9.02993e-06	1.97058e-06
2	0	0	0	1	413.922	-0.278116	-0.2783	-0.00721633	2	-9.0776e-06	2.00831e-06
2	0	0	1	1	413.929	-0.281415	-0.281599	-0.00729534	2	-9.12568e-06	2.05436e-06
2	0	0	1	1	413.935	-0.284814	-0.284992	-0.00734775	2	-9.17566e-06	2.09405e-06
2	0	0	0	1	413.942	-0.288113	-0.288301	-0.00733911	2	-9.2243e-06	2.11587e-06
2	0	0	1	1	413.949	-0.291411	-0.291622	-0.00736614	2	-9.27304e-06	2.14813e-06
2	0	0	1	1	413.955	-0.29481	-0.295019	-0.00739769	2	-9.32343e-06	2.18246e-06
2	0	0	0	1	413.962	-0.298109	-0.298352	-0.0074127	2	-9.37248e-06	2.21159e-06
2	0	0	1	1	413.969	-0.301408	-0.301643	-0.00740482	2	-9.42156e-06	2.23361e-06
2	0	0	1	1	413.975	-0.304806	-0.305038	-0.00737865	2	-9.47202e-06	2.25077e-06
2	0	0	0	1	413.982	-0.308105	-0.308342	-0.00737574	2	-9.52088e-06	2.27425e-06
2	0	0	1	1	413.989	-0.311404	-0.311645	-0.00733817	2	-9.56963e-06	2.2869e-06
2	0	0	1	1	413.995	-0.314802	-0.315036	-0.0072985	2	-9.61958e-06	2.29929e-06
2	0	0	0	1	414.002	-0.318101	-0.318324	-0.0072656	2	-9.6678e-06	2.31282e-06
2	0	0	1	1	414.009	-0.3214	-0.321601	-0.0072269	2	-9.7158e-06	2.32418e-06
2	0	0	1	1	414.015	-0.324799	-0.325014	-0.0071873	2	-9.76498e-06	2.33598e-06
2	0	0	0	1	414.022	-0.328097	-0.328302	-0.00713687	2	-9.81241e-06	2.34305e-06
2	0	0	1	1	414.029	-0.331396	-0.331621	-0.00707794	2	-9.85952e-06	2.34719e-06
2	0	0	1	1	414.035	-0.334795	-0.335025	-0.00705066	2	-9.90773e-06	2.36215e-06
2	0	0	0	1	414.042	-0.338094	-0.338307	-0.00700572	2	-9.95429e-06	2.37008e-06
2	0	0	1	1	414.049	-0.341392	-0.341641	-0.00698383	2	-1.00006e-05	2.38596e-06
2	0	0	1	1	414.055	-0.344791	-0.345041	-0.0069079	2	-1.0048e-05	2.38351e-06
2	0	0	0	1	414.062	-0.34809	-0.348333	-0.00685577	2	-1.00936e-05	2.38809e-06
2	0	0	1	1	414.069	-0.351422	-0.351673	-0.0068041	2	-1.01389e-05	2.39282e-06
2	0	0	0	1	414.075	-0.354721	-0.354982	-0.00678097	2	-1.01839e-05	2.40712e-06
2	0	0	0	1	414.082	-0.358119	-0.358352	-0.00673807	2	-1.02301e-05	2.4146e-06
2	0	0	1	1	414.089	-0.361418	-0.36166	-0.00669843	2	-1.02746e-05	2.42256e-06
2	0	0	0	1	414.095	-0.364717	-0.364953	-0.00665946	2	-1.03189e-05	2.43039e-06
2	0	0	0	1	414.102	-0.368115	-0.36834	-0.00662836	2	-1.03642e-05	2.44149e-06
2	0	0	1	1	414.109	-0.371414	-0.371638	-0.00660965	2	-1.04081e-05	2.4564e-06
2	0	0	0	1	414.115	-0.374713	-0.374957	-0.00656739	2	-1.04517e-05	2.46249e-06
2	0	0	0	1	414.122	-0.378112	-0.378345	-0.00653356	2	-1.04964e-05	2.47193e-06
2	0	0	1	1	414.129	-0.38141	-0.381659	-0.00651072	2	-1.05397e-05	2.48487e-06
2	0	0	0	1	414.135	-0.384709	-0.384967	-0.00647941	2	-1.05827e-05	2.49436e-06
2	0	0	0	1	414.142	-0.388108	-0.388358	-0.00645801	2	-1.06269e-05	2.50802e-06
2	0	0	1	1	414.149	-0.391407	-0.391661	-0.00642752	2	-1.06696e-05	2.51741e-06
2	0	0	0	1	414.155	-0.394705	-0.394949	-0.00641582	2	-1.07122e-05	2.53392e-06
2	0	0	0	1	414.162	-0.398104	-0.398381	-0.00638949	2	-1.07559e-05	2.54545e-06
2	0	0	1	1	414.169	-0.401403	-0.401664	-0.00637918	2	-1.07982e-05	2.56228e-06
2	0	0	0	1	414.175	-0.404702	-0.404936	-0.00636279	2	-1.08404e-05	2.57652e-06
2	0	0	0	1	414.182	-0.4081	-0.408337	-0.00635531	2	-1.08838e-05	2.59511e-06
2	0	0	1	1	414.189	-0.411399	-0.411629	-0.00634421	2	-1.09259e-05	2.61146e-06
2	0	0	0	1	414.195	-0.414698	-0.414937	-0.00633929	2	-1.0968e-05	2.6304e-06
2	0	0	0	1	414.202	-0.418096	-0.418347	-0.00632255	2	-1.10112e-05	2.64502e-06
2	0	0	1	1	414.209	-0.421395	-0.42165	-0.00630842	2	-1.1053e-05	2.65994e-06
2	0	0	0	1	414.215	-0.424694	-0.424942	-0.006311	2	-1.10949e-05	2.68181e-06
2	0	0	0	1	414.222	-0.428093	-0.428325	-0.00630499	2	-1.11379e-05	2.70059e-06
2	0	0	1	1	414.229	-0.431391	-0.431626	-0.00629553	2	-1.11797e-05	2.71731e-06
2	0	0	0	1	414.235	-0.43469	-0.434918	-0.00630768	2	-1.12215e-05	2.74332e-06
2	0	0	0	1	414.242	-0.438067	-0.438307	-0.00630441	2	-1.12639e-05	2.76327e-06
2	0	0	1	1	414.249	-0.441421	-0.441654	-0.00629488	2	-1.13063e-05	2.78016e-06
2	0	0	0	1	414.255	-0.44472	-0.444953	-0.00629741	2	-1.13481e-05	2.80205e-06
2	0	0	1	1	414.262	-0.448018	-0.448235	-0.00630445	2	-1.13898e-05	2.82588e-06
2	0	0	1	1	414.269	-0.451417	-0.451646	-0.0063056	2	-1.14329e-05	2.8479e-06
2	0	0	0	1	414.275	-0.454716	-0.45492	-0.00630968	2	-1.14747e-05	2.8704e-06
2	0	0	1	1	414.282	-0.458014	-0.458246	-0.00631267	2	-1.15165e-05	2.89275e-06
2	0	0	1	1	414.289	-0.461413	-0.46166	-0.00633269	2	-1.15597e-05	2.92355e-06
2	0	0	0	1	414.295	-0.464712	-0.464929	-0.00633183	2	-1.16017e-05	2.94385e-06
2	0	0	1	1	414.302	-0.468011	-0.468271	-0.00634874	2	-1.16437e-05	2.97293e-06
2	0	0	1	1	414.309	-0.471409	-0.471671	-0.00636685	2	-1.16871e-05	3.00306e-06
2	0	0	0	1	414.315	-0.474708	-0.474966	-0.00636211	2	-1.17293e-05	3.02179e-06
2	0	0	1	1	414.322	-0.478007	-0.47825	-0.00637688	2	-1.17715e-05	3.04974e-06
2	0	0	1	1	414.329	-0.481406	-0.481669	-0.00638628	2	-1.18151e-05	3.07607e-06
2	0	0	0	1	414.335	-0.484704	-0.484949	-0.00639909	2	-1.18575e-05	3.10323e-06
2	0	0	1	1	414.342	-0.488003	-0.488275	-0.006424	2	-1.19e-05	3.13668e-06
2	0	0	1	1	414.349	-0.491402	-0.491629	-0.006421	2	-1.19439e-05	3.15675e-06
2	0	0	0	1	414.355	-0.494701	-0.494942	-0.00644716	2	-1.19865e-05	3.19097e-06
2	0	0	1	1	414.362	-0.497999	-0.498255	-0.00645749	2	-1.20293e-05	3.21747e-06
2	0	0	1	1	414.369	-0.501398	-0.50166	-0.00648778	2	-1.20735e-05	3.25466e-06
2	0	0	0	1	414.375	-0.504697	-0.504958	-0.00652557	2	-1.21167e-05	3.29514e-06
2	0	0	1	1	414.382	-0.507995	-0.508251	-0.00654974	2	-1.216e-05	3.32891e-06
2	0	0	1	1	414.389	-0.511394	-0.511667	-0.006566	2	-1.22048e-05	3.35961e-06
2	0	0	0	1	414.395	-0.514693	-0.51495	-0.00658591	2	-1.22484e-05	3.39141e-06
2	0	0	1	1	414.402	-0.517992	-0.518245	-0.00659559	2	-1.2292e-05	3.41814e-06
2	0	0	1	1	414.409	-0.52139	-0.521638	-0.00661795	2	-1.23372e-05	3.45218e-06
2	0	0	0	1	414.415	-0.524711	-0.524952	-0.00665613	2	-1.23812e-05	3.49415e-06
2	0	0	1	1	414.422	-0.528021	-0.528285	-0.00669657	2	-1.24254e-05	3.5377e-06
2	0	0	0	1	414.428	-0.53132	-0.53156	-0.00672063	2	-1.24699e-05	3.57242e-06
2	0	0	0	1	414.435	-0.534719	-0.534965	-0.0067461	2	-1.25159e-05	3.60893e-06
2	0	0	1	1	414.442	-0.538017	-0.538259	-0.00677319	2	-1.25607e-05	3.64573e-06
2	0	0	0	1	414.448	-0.541316	-0.541561	-0.00681359	2	-1.26057e-05	3.68998e-06
2	0	0	0	1	414.455	-0.544715	-0.544965	-0.00684713	2	-1.26524e-05	3.73145e-06
2	0	0	1	1	414.462	-0.548014	-0.548258	-0.00688556	2	-1.26979e-05	3.77506e-06
2	0	0	0	1	414.468	-0.551312	-0.551558	-0.00693222	2	-1.27437e-05	3.82352e-06
2	0	0	0	1	414.475	-0.554711	-0.554971	-0.00697226	2	-1.27911e-05	3.8694e-06
2	0	0	1	1	414.482	-0.55801	-0.55829	-0.00701622	2	-1.28375e-05	3.91708e-06
2	0	0	0	1	414.488	-0.561308	-0.561573	-0.00705407	2	-1.28841e-05	3.96138e-06
2	0	0	0	1	414.495	-0.564707	-0.564984	-0.00710411	2	-1.29324e-05	4.0137e-06
2	0	0	1	1	414.502	-0.568006	-0.568281	-0.00714908	2	-1.29797e-05	4.06269e-06
2	0	0	0	1	414.508	-0.571305	-0.571563	-0.00720404	2	-1.30272e-05	4.11756e-06
2	0	0	0	1	414.515	-0.574703	-0.574973	-0.00725969	2	-1.30766e-05	4.17412e-06
2	0	0	1	1	414.522	-0.578002	-0.578266	-0.00732003	2	-1.31249e-05	4.23293e-06
2	0	0	0	1	414.528	-0.581301	-0.581556	-0.00736147	2	-1.31735e-05	4.28111e-06
2	0	0	0	1	414.535	-0.5847	-0.584955	-0.00743931	2	-1.32241e-05	4.35166e-06
2	0	0	1	1	414.542	-0.587998	-0.588256	-0.00748644	2	-1.32735e-05	4.40394e-06
2	0	0	0	1	414.548	-0.591297	-0.591559	-0.0075568	2	-1.33233e-05	4.47029e-06
2	0	0	0	1	414.555	-0.594696	-0.594958	-0.00763507	2	-1.33752e-05	4.54255e-06
2	0	0	1	1	414.562	-0.597994	-0.59824	-0.00772039	2	-1.3426e-05	4.61864e-06
2	0	0	0	1	414.565	-0.599827	-0.600096	-0.00777497	2	-1.3454e-05	4.66573e-06